timestamp,acc_x,acc_y,acc_z,gyr_x,gyr_y,gyr_z
1646443353212.0945,-0.1224365234375,-0.009033203125,0.00909423828125,-0.5801526717557252,0.2061068702290076,-0.3740458015267175
1646443353227.999,-0.1214599609375,-0.0084228515625,0.0089111328125,-0.6259541984732825,0.1755725190839694,-0.3511450381679389
1646443353243.589,-0.12176513671875,-0.009033203125,0.0086669921875,-0.6106870229007634,0.1755725190839694,-0.3740458015267175
1646443353259.3796,-0.1212158203125,-0.00689697265625,0.0078125,-0.5954198473282443,0.1603053435114503,-0.3587786259541984
1646443353275.0193,-0.12152099609375,-0.00823974609375,0.00933837890625,-0.5877862595419847,0.1297709923664122,-0.3893129770992366
1646443353290.8423,-0.12152099609375,-0.0086669921875,0.00823974609375,-0.5954198473282443,0.1374045801526717,-0.3740458015267175
1646443353306.4954,-0.1217041015625,-0.009033203125,0.00897216796875,-0.5877862595419847,0.099236641221374,-0.3816793893129771
1646443353322.2832,-0.12060546875,-0.008544921875,0.00848388671875,-0.549618320610687,0.1145038167938931,-0.3816793893129771
1646443353337.96,-0.1209716796875,-0.009521484375,0.00885009765625,-0.6717557251908397,0.0305343511450381,-0.366412213740458
1646443353353.6174,-0.1212158203125,-0.00909423828125,0.0098876953125,-0.5954198473282443,0.183206106870229,-0.3511450381679389
1646443353369.3867,-0.12060546875,-0.00860595703125,0.00885009765625,-0.6183206106870229,0.2213740458015267,-0.3511450381679389
1646443353385.0627,-0.12091064453125,-0.008544921875,0.0084228515625,-0.6183206106870229,0.1603053435114503,-0.3740458015267175
1646443353400.8022,-0.1219482421875,-0.008056640625,0.0089111328125,-0.6106870229007634,0.1374045801526717,-0.366412213740458
1646443353416.452,-0.121337890625,-0.0081787109375,0.009521484375,-0.5954198473282443,0.1374045801526717,-0.3740458015267175
1646443353432.2292,-0.12103271484375,-0.00909423828125,0.009521484375,-0.5954198473282443,0.1679389312977099,-0.366412213740458
1646443353447.9385,-0.1212158203125,-0.00860595703125,0.00885009765625,-0.6183206106870229,0.2290076335877862,-0.3587786259541984
1646443353463.743,-0.1217041015625,-0.00909423828125,0.00836181640625,-0.6106870229007634,0.2519083969465648,-0.3587786259541984
1646443353479.4033,-0.12115478515625,-0.008544921875,0.008056640625,-0.5954198473282443,0.1984732824427481,-0.3511450381679389
1646443353495.098,-0.121337890625,-0.00872802734375,0.00933837890625,-0.5954198473282443,0.1526717557251908,-0.3587786259541984
1646443353510.8718,-0.1212158203125,-0.00897216796875,0.00823974609375,-0.5877862595419847,0.1755725190839694,-0.3587786259541984
1646443353526.5415,-0.1214599609375,-0.0079345703125,0.00836181640625,-0.5877862595419847,0.2213740458015267,-0.3511450381679389
1646443353542.337,-0.1212158203125,-0.0089111328125,0.0084228515625,-0.6259541984732825,0.2519083969465648,-0.3511450381679389
1646443353557.988,-0.12152099609375,-0.0079345703125,0.00982666015625,-0.6259541984732825,0.1908396946564885,-0.366412213740458
1646443353573.777,-0.1214599609375,-0.00885009765625,0.0093994140625,-0.6030534351145038,0.1068702290076335,-0.4045801526717557
1646443353589.423,-0.12152099609375,-0.00872802734375,0.00897216796875,-0.6030534351145038,0.1526717557251908,-0.366412213740458
1646443353605.1138,-0.1214599609375,-0.00848388671875,0.0089111328125,-0.6183206106870229,0.1984732824427481,-0.3511450381679389
1646443353620.8977,-0.12158203125,-0.0089111328125,0.0089111328125,-0.6030534351145038,0.2137404580152671,-0.3206106870229007
1646443353636.5437,-0.121337890625,-0.00885009765625,0.0087890625,-0.6030534351145038,0.1908396946564885,-0.3282442748091603
1646443353652.3633,-0.1217041015625,-0.008544921875,0.00933837890625,-0.6183206106870229,0.2290076335877862,-0.3511450381679389
1646443353668.0215,-0.12115478515625,-0.0089111328125,0.00982666015625,-0.6183206106870229,0.183206106870229,-0.366412213740458
1646443353683.7812,-0.12158203125,-0.009033203125,0.0089111328125,-0.6030534351145038,0.2137404580152671,-0.3740458015267175
1646443353699.443,-0.12158203125,-0.00897216796875,0.00909423828125,-0.6106870229007634,0.2290076335877862,-0.3587786259541984
1646443353715.2712,-0.1214599609375,-0.0087890625,0.00872802734375,-0.6030534351145038,0.1908396946564885,-0.3435114503816794
1646443353730.9185,-0.12091064453125,-0.0081787109375,0.0035400390625,-0.4045801526717557,0.4045801526717557,-0.183206106870229
1646443353746.5786,-0.1197509765625,0.0067138671875,-0.010986328125,-0.5419847328244275,0.3816793893129771,-0.3435114503816794
1646443353762.4036,-0.1220703125,-0.00775146484375,0.00701904296875,0.4580152671755725,-0.1221374045801526,-0.3740458015267175
1646443353778.064,-0.12078857421875,-0.00634765625,0.01361083984375,1.5725190839694656,-0.1297709923664122,-0.4274809160305343
1646443353794.5315,-0.1197509765625,-0.01141357421875,0.00384521484375,2.4122137404580157,0.6870229007633588,-0.4122137404580153
1646443353811.3047,-0.12420654296875,-0.000732421875,-0.0015869140625,0.9694656488549618,0.732824427480916,-0.3511450381679389
1646443353828.2546,-0.12176513671875,-0.009521484375,0.04034423828125,2.9618320610687023,0.6793893129770993,-0.366412213740458
1646443353845.0056,-0.1181640625,-0.0091552734375,-0.00042724609375,1.6564885496183206,0.5725190839694656,-0.3206106870229007
1646443353861.7395,-0.12432861328125,-0.00933837890625,0.0003662109375,1.83206106870229,0.2824427480916031,-0.3893129770992366
1646443353878.6128,-0.12078857421875,-0.00738525390625,0.00018310546875,1.3740458015267176,0.0763358778625954,-0.4045801526717557
1646443353895.8853,-0.1209716796875,-0.009033203125,0.019775390625,1.3435114503816794,0.2519083969465648,-0.3893129770992366
1646443353913.496,-0.1226806640625,-0.0067138671875,0.00933837890625,1.251908396946565,0.6030534351145038,-0.366412213740458
1646443353930.991,-0.1234130859375,-0.0057373046875,0.005615234375,1.0610687022900764,0.2748091603053435,-0.366412213740458
1646443353948.7078,-0.12158203125,-0.00738525390625,0.003173828125,1.3282442748091603,0.2290076335877862,-0.3740458015267175
1646443353966.2832,-0.121337890625,-0.00994873046875,0.015380859375,1.083969465648855,0.0763358778625954,-0.366412213740458
1646443353983.9446,-0.12091064453125,-0.00958251953125,0.01336669921875,0.900763358778626,0.0458015267175572,-0.3893129770992366
1646443354000.914,-0.12054443359375,-0.00665283203125,0.00775146484375,1.6488549618320612,0.2824427480916031,-0.4274809160305343
1646443354017.6333,-0.119873046875,-0.00634765625,0.01043701171875,1.7709923664122138,0.1984732824427481,-0.4274809160305343
1646443354034.554,-0.12200927734375,-0.00872802734375,0.01556396484375,1.4732824427480915,-0.0458015267175572,-0.4351145038167939
1646443354051.295,-0.1201171875,-0.00762939453125,0.0107421875,1.6412213740458017,0.4122137404580153,-0.4122137404580153
1646443354068.173,-0.12054443359375,-0.009765625,0.0225830078125,1.6717557251908397,-0.2290076335877862,-0.4351145038167939
1646443354084.9363,-0.11846923828125,-0.00994873046875,0.020263671875,1.8931297709923665,-0.0305343511450381,-0.4122137404580153
1646443354102.7373,-0.12469482421875,-0.00665283203125,-0.0093994140625,1.938931297709924,0.4122137404580153,-0.3969465648854962
1646443354120.2356,-0.11810302734375,-0.0101318359375,0.00897216796875,2.015267175572519,0.3358778625954198,-0.3969465648854962
1646443354137.7366,-0.12030029296875,-0.0096435546875,0.0142822265625,2.648854961832061,0.6564885496183206,-0.3816793893129771
1646443354155.5002,-0.12176513671875,-0.0081787109375,0.02398681640625,2.862595419847328,0.4885496183206106,-0.3969465648854962
1646443354173.0735,-0.119384765625,0.0,-0.001220703125,3.198473282442748,-0.015267175572519,-0.4732824427480916
1646443354191.0647,-0.12371826171875,-0.008056640625,0.0201416015625,3.5114503816793894,-0.0839694656488549,-0.4732824427480916
1646443354207.809,-0.12548828125,-0.00927734375,0.01837158203125,4.022900763358779,0.3740458015267175,-0.4351145038167939
1646443354224.823,-0.1219482421875,-0.009033203125,0.0135498046875,4.312977099236641,0.3740458015267175,-0.4503816793893129
1646443354241.5422,-0.11419677734375,-0.00830078125,0.013916015625,4.083969465648855,0.3587786259541984,-0.3969465648854962
1646443354258.277,-0.122314453125,-0.0108642578125,0.01080322265625,4.190839694656488,0.1450381679389313,-0.465648854961832
1646443354275.1702,-0.12103271484375,-0.00933837890625,0.0135498046875,3.984732824427481,-0.2671755725190839,-0.5419847328244275
1646443354292.2031,-0.1182861328125,-0.01171875,0.0120849609375,4.694656488549619,1.0,-0.3511450381679389
1646443354309.928,-0.1270751953125,-0.0115966796875,-0.00341796875,3.404580152671756,-0.2290076335877862,-0.4503816793893129
1646443354327.521,-0.1217041015625,-0.0079345703125,0.01116943359375,3.404580152671756,0.6870229007633588,-0.3893129770992366
1646443354345.2266,-0.12451171875,-0.005859375,-0.02728271484375,2.786259541984733,0.4503816793893129,-0.3816793893129771
1646443354362.744,-0.12164306640625,-0.0142822265625,0.01483154296875,2.687022900763359,-0.0687022900763358,-0.4427480916030534
1646443354380.4497,-0.1175537109375,-0.01123046875,0.00079345703125,3.0,0.3893129770992366,-0.4045801526717557
1646443354397.7854,-0.12109375,-0.01141357421875,0.013916015625,2.099236641221374,0.3740458015267175,-0.4045801526717557
1646443354414.4824,-0.12054443359375,-0.008544921875,0.00482177734375,1.83206106870229,-0.0839694656488549,-0.4122137404580153
1646443354431.3738,-0.12109375,-0.00933837890625,0.01416015625,1.7251908396946565,-0.0916030534351145,-0.4122137404580153
1646443354448.0686,-0.122802734375,-0.0108642578125,0.0091552734375,1.0610687022900764,0.0458015267175572,-0.3740458015267175
1646443354464.921,-0.12200927734375,-0.0106201171875,0.01544189453125,1.267175572519084,0.4961832061068702,-0.3893129770992366
1646443354481.6377,-0.12213134765625,-0.00714111328125,0.0108642578125,1.3358778625954195,0.2671755725190839,-0.4045801526717557
1646443354499.0312,-0.12109375,-0.00872802734375,0.0196533203125,1.923664122137405,0.0534351145038167,-0.366412213740458
1646443354516.518,-0.12005615234375,-0.00701904296875,-0.00067138671875,1.4274809160305344,0.3053435114503817,-0.3969465648854962
1646443354534.0076,-0.12017822265625,-0.00933837890625,0.0159912109375,1.4885496183206106,0.0763358778625954,-0.4274809160305343
1646443354551.754,-0.12164306640625,-0.00909423828125,0.0111083984375,1.8091603053435117,0.2366412213740458,-0.3740458015267175
1646443354569.2676,-0.12164306640625,-0.00897216796875,0.00787353515625,2.0916030534351147,0.5343511450381679,-0.3740458015267175
1646443354586.9497,-0.11822509765625,-0.00726318359375,0.00836181640625,1.786259541984733,0.0687022900763358,-0.4045801526717557
1646443354604.1553,-0.120849609375,-0.01031494140625,0.0196533203125,1.9083969465648856,0.3358778625954198,-0.3969465648854962
1646443354621.016,-0.12054443359375,-0.0074462890625,0.00323486328125,1.763358778625954,0.7480916030534351,-0.3740458015267175
1646443354637.7078,-0.1187744140625,-0.00897216796875,0.0074462890625,1.5419847328244274,0.0916030534351145,-0.3893129770992366
1646443354654.41,-0.124755859375,-0.0064697265625,0.00048828125,1.465648854961832,0.3740458015267175,-0.3358778625954198
1646443354671.3062,-0.12109375,-0.00872802734375,0.00396728515625,1.4809160305343512,0.6106870229007634,-0.3511450381679389
1646443354687.984,-0.12060546875,-0.0087890625,0.00506591796875,1.4351145038167938,0.4122137404580153,-0.3816793893129771
1646443354705.6694,-0.125,-0.00677490234375,0.0086669921875,1.916030534351145,0.6412213740458015,-0.3282442748091603
1646443354723.17,-0.12347412109375,-0.00604248046875,0.01043701171875,1.4198473282442747,0.0610687022900763,-0.3816793893129771
1646443354740.827,-0.1217041015625,-0.00518798828125,-0.00457763671875,1.5648854961832062,0.4122137404580153,-0.4122137404580153
1646443354758.3247,-0.11785888671875,-0.0064697265625,0.00726318359375,1.6946564885496185,0.1603053435114503,-0.4198473282442748
1646443354775.986,-0.1163330078125,-0.010986328125,0.012451171875,2.3587786259541983,0.5267175572519084,-0.3587786259541984
1646443354793.6348,-0.11846923828125,-0.005859375,0.003662109375,2.1297709923664123,0.1526717557251908,-0.366412213740458
1646443354810.328,-0.12506103515625,-0.0111083984375,0.01385498046875,3.0839694656488548,0.8931297709923665,-0.3893129770992366
1646443354827.2798,-0.12109375,-0.00823974609375,0.0267333984375,2.8091603053435112,0.4885496183206106,-0.4045801526717557
1646443354843.9624,-0.1207275390625,-0.00653076171875,-0.00909423828125,2.519083969465649,0.3816793893129771,-0.366412213740458
1646443354860.858,-0.1220703125,-0.0062255859375,0.00408935546875,2.6717557251908395,0.4198473282442748,-0.4274809160305343
1646443354877.5388,-0.12042236328125,-0.0086669921875,0.00323486328125,3.0610687022900764,0.6946564885496184,-0.4045801526717557
1646443354894.6814,-0.11883544921875,-0.00469970703125,-0.00396728515625,2.648854961832061,0.6946564885496184,-0.4045801526717557
1646443354912.1628,-0.12164306640625,-0.010986328125,0.020263671875,2.877862595419847,0.3358778625954198,-0.3969465648854962
1646443354929.639,-0.12286376953125,-0.00732421875,0.0048828125,2.5877862595419847,0.2824427480916031,-0.3816793893129771
1646443354947.308,-0.11602783203125,-0.0074462890625,0.00018310546875,2.778625954198473,0.2290076335877862,-0.465648854961832
1646443354964.856,-0.11932373046875,-0.00762939453125,0.00244140625,2.854961832061069,0.4274809160305343,-0.4351145038167939
1646443354982.5513,-0.12109375,-0.0098876953125,0.00787353515625,2.312977099236641,0.0763358778625954,-0.4198473282442748
1646443354999.9702,-0.12261962890625,-0.0059814453125,0.00439453125,2.8473282442748094,0.8015267175572519,-0.3816793893129771
1646443355016.847,-0.12091064453125,-0.0098876953125,0.004150390625,1.786259541984733,0.3358778625954198,-0.3969465648854962
1646443355033.552,-0.11944580078125,-0.0084228515625,0.004638671875,2.3893129770992365,-0.0458015267175572,-0.4503816793893129
1646443355050.388,-0.1220703125,-0.00848388671875,0.00701904296875,2.114503816793893,0.5190839694656488,-0.3969465648854962
1646443355067.1096,-0.122802734375,-0.00933837890625,0.00885009765625,1.6641221374045805,0.5877862595419847,-0.366412213740458
1646443355083.7944,-0.11962890625,-0.01068115234375,0.0142822265625,1.4809160305343512,0.1755725190839694,-0.3893129770992366
1646443355101.188,-0.12115478515625,-0.010986328125,0.01422119140625,1.3511450381679388,0.3129770992366412,-0.4351145038167939
1646443355118.7417,-0.1220703125,-0.01141357421875,0.019775390625,1.1068702290076335,0.1526717557251908,-0.3816793893129771
1646443355136.553,-0.12457275390625,-0.00982666015625,0.01373291015625,1.3206106870229009,-0.2290076335877862,-0.4351145038167939
1646443355154.1245,-0.1239013671875,-0.0084228515625,0.01385498046875,1.7709923664122138,0.5648854961832062,-0.3587786259541984
1646443355171.8218,-0.11907958984375,-0.00982666015625,0.0069580078125,1.3740458015267176,0.1755725190839694,-0.4274809160305343
1646443355189.3118,-0.12030029296875,-0.00848388671875,0.00506591796875,1.0381679389312977,0.4351145038167939,-0.3511450381679389
1646443355206.3264,-0.12261962890625,-0.00933837890625,0.0135498046875,1.6030534351145038,0.3816793893129771,-0.3816793893129771
1646443355225.088,-0.12213134765625,-0.00762939453125,0.005859375,1.3893129770992367,0.0916030534351145,-0.4198473282442748
1646443355241.7234,-0.123291015625,-0.0081787109375,0.0135498046875,1.076335877862595,0.2061068702290076,-0.4198473282442748
1646443355258.59,-0.11846923828125,-0.00640869140625,-0.001953125,1.3969465648854962,0.5343511450381679,-0.3587786259541984
1646443355275.3037,-0.12115478515625,-0.00592041015625,0.00982666015625,1.5801526717557253,0.5190839694656488,-0.4045801526717557
1646443355292.1765,-0.1207275390625,-0.00738525390625,0.01708984375,1.465648854961832,0.3511450381679389,-0.3740458015267175
1646443355309.7434,-0.12139892578125,-0.00555419921875,0.00152587890625,1.4274809160305344,0.3893129770992366,-0.3816793893129771
1646443355327.2483,-0.1212158203125,-0.00738525390625,0.004638671875,1.6259541984732824,-0.1679389312977099,-0.4809160305343511
1646443355344.994,-0.1224365234375,-0.01092529296875,0.01239013671875,1.534351145038168,0.366412213740458,-0.3969465648854962
1646443355362.5403,-0.11968994140625,-0.00897216796875,0.02154541015625,1.8091603053435117,0.4580152671755725,-0.4122137404580153
1646443355380.187,-0.11798095703125,-0.00518798828125,-0.0101318359375,1.923664122137405,1.0,-0.3358778625954198
1646443355397.817,-0.12213134765625,-0.00537109375,-0.00714111328125,1.6564885496183206,0.1068702290076335,-0.4427480916030534
1646443355414.7056,-0.1234130859375,-0.00970458984375,0.0093994140625,1.4045801526717556,0.1908396946564885,-0.4045801526717557
1646443355431.4106,-0.119873046875,-0.01019287109375,0.01556396484375,1.2061068702290076,-0.1145038167938931,-0.4198473282442748
1646443355448.2517,-0.12335205078125,-0.00946044921875,0.02410888671875,1.282442748091603,0.2595419847328244,-0.366412213740458
1646443355464.9607,-0.11962890625,-0.0091552734375,0.00848388671875,2.175572519083969,0.7175572519083969,-0.3893129770992366
1646443355481.6538,-0.12017822265625,-0.010986328125,0.012939453125,1.6259541984732824,0.1908396946564885,-0.3969465648854962
1646443355498.8416,-0.120849609375,-0.00775146484375,0.00408935546875,1.5801526717557253,0.7938931297709924,-0.3358778625954198
1646443355516.333,-0.1209716796875,-0.008056640625,0.0140380859375,1.6488549618320612,0.3816793893129771,-0.3969465648854962
1646443355534.017,-0.12274169921875,-0.007568359375,0.004638671875,1.9618320610687023,0.4351145038167939,-0.3893129770992366
1646443355551.4998,-0.12213134765625,-0.00750732421875,0.0006103515625,2.5114503816793894,-0.099236641221374,-0.4427480916030534
1646443355569.1511,-0.12091064453125,-0.00775146484375,0.0155029296875,2.3206106870229006,0.1221374045801526,-0.4580152671755725
1646443355586.636,-0.12384033203125,-0.007568359375,0.0086669921875,2.2290076335877864,0.4198473282442748,-0.3816793893129771
1646443355603.7874,-0.12249755859375,-0.00665283203125,0.00750732421875,2.6106870229007635,0.465648854961832,-0.3969465648854962
1646443355620.707,-0.1226806640625,-0.00921630859375,0.0130615234375,2.954198473282443,0.2824427480916031,-0.4580152671755725
1646443355637.3923,-0.1202392578125,-0.00830078125,0.01885986328125,2.366412213740458,0.5038167938931297,-0.3969465648854962
1646443355654.27,-0.1175537109375,-0.00653076171875,0.019287109375,2.931297709923664,0.2366412213740458,-0.4503816793893129
1646443355670.9688,-0.1214599609375,-0.0086669921875,0.021484375,2.816793893129771,0.6030534351145038,-0.4198473282442748
1646443355687.8677,-0.12322998046875,-0.00811767578125,0.00994873046875,2.5114503816793894,0.3816793893129771,-0.4122137404580153
1646443355705.1511,-0.11993408203125,-0.0064697265625,0.01153564453125,2.206106870229008,0.1908396946564885,-0.4274809160305343
1646443355722.8064,-0.12200927734375,-0.00372314453125,-0.01251220703125,2.534351145038168,0.2671755725190839,-0.4122137404580153
1646443355740.313,-0.12384033203125,-0.00421142578125,0.00421142578125,2.9236641221374047,0.5648854961832062,-0.4503816793893129
1646443355757.7876,-0.12322998046875,-0.00592041015625,0.0106201171875,2.6106870229007635,0.1984732824427481,-0.4351145038167939
1646443355775.5442,-0.12164306640625,-0.01080322265625,0.01953125,1.5648854961832062,0.1679389312977099,-0.4122137404580153
1646443355793.069,-0.12249755859375,-0.00836181640625,0.020751953125,2.3740458015267176,0.5572519083969466,-0.3969465648854962
1646443355810.379,-0.121826171875,-0.0068359375,-0.01171875,1.732824427480916,0.5114503816793893,-0.3740458015267175
1646443355827.1096,-0.1199951171875,-0.00732421875,-0.0010986328125,1.7938931297709924,0.465648854961832,-0.3969465648854962
1646443355843.9766,-0.12139892578125,-0.01129150390625,0.01898193359375,1.1984732824427482,0.0610687022900763,-0.4122137404580153
1646443355860.6892,-0.12213134765625,-0.0089111328125,0.01239013671875,1.366412213740458,0.3816793893129771,-0.4045801526717557
1646443355877.3774,-0.1219482421875,-0.0118408203125,0.01629638671875,0.7862595419847328,0.1374045801526717,-0.3969465648854962
1646443355894.2827,-0.12164306640625,-0.00848388671875,0.01123046875,0.7633587786259542,0.2595419847328244,-0.3893129770992366
1646443355911.5193,-0.12115478515625,-0.0101318359375,0.0072021484375,0.7557251908396947,0.2977099236641221,-0.3816793893129771
1646443355929.1423,-0.1217041015625,-0.00750732421875,0.0113525390625,0.7251908396946565,0.2366412213740458,-0.3816793893129771
1646443355946.6274,-0.1212158203125,-0.00750732421875,-0.0006103515625,0.1984732824427481,-0.0687022900763358,-0.4274809160305343
1646443355964.313,-0.12158203125,-0.00799560546875,0.005859375,0.1068702290076335,-0.0916030534351145,-0.4122137404580153
1646443355981.848,-0.1214599609375,-0.00665283203125,0.00360107421875,0.2519083969465648,0.4503816793893129,-0.3511450381679389
1646443355999.6497,-0.12200927734375,-0.00811767578125,0.0096435546875,-0.1450381679389313,0.4045801526717557,-0.3740458015267175
1646443356016.338,-0.12139892578125,-0.006591796875,0.001708984375,0.4122137404580153,0.4809160305343511,-0.3587786259541984
1646443356033.0662,-0.12158203125,-0.00750732421875,0.004150390625,0.2519083969465648,0.3053435114503817,-0.3511450381679389
1646443356049.902,-0.12054443359375,-0.00885009765625,0.00726318359375,0.1450381679389313,0.3511450381679389,-0.3435114503816794
1646443356066.6572,-0.11968994140625,-0.00787353515625,0.0006103515625,0.2671755725190839,0.2442748091603053,-0.3435114503816794
1646443356083.5374,-0.1236572265625,-0.00823974609375,0.01080322265625,-0.015267175572519,-0.0305343511450381,-0.4045801526717557
1646443356100.515,-0.1212158203125,-0.00811767578125,0.01068115234375,-0.0916030534351145,0.2977099236641221,-0.366412213740458
1646443356118.2778,-0.12060546875,-0.00836181640625,0.013427734375,-0.1526717557251908,0.2290076335877862,-0.3740458015267175
1646443356135.871,-0.1217041015625,-0.0096435546875,0.00787353515625,-0.4809160305343511,0.2213740458015267,-0.366412213740458
1646443356153.3909,-0.12127685546875,-0.00823974609375,0.01043701171875,-0.5572519083969466,0.0534351145038167,-0.366412213740458
1646443356171.168,-0.12091064453125,-0.00848388671875,0.00848388671875,-0.5648854961832062,0.1450381679389313,-0.3816793893129771
1646443356188.7295,-0.12109375,-0.0087890625,0.00860595703125,-0.5877862595419847,0.0763358778625954,-0.3740458015267175
1646443356206.152,-0.1214599609375,-0.0078125,0.00872802734375,-0.6030534351145038,0.1297709923664122,-0.3587786259541984
1646443356224.549,-0.121337890625,-0.00823974609375,0.00909423828125,-0.6030534351145038,0.2519083969465648,-0.3358778625954198
1646443356241.4104,-0.1212158203125,-0.0074462890625,0.00872802734375,-0.6030534351145038,0.1984732824427481,-0.3511450381679389
1646443356258.069,-0.12109375,-0.00860595703125,0.00872802734375,-0.6030534351145038,0.099236641221374,-0.3587786259541984
1646443356274.973,-0.12152099609375,-0.0078125,0.007568359375,-0.4580152671755725,0.1374045801526717,-0.3435114503816794
1646443356291.67,-0.1204833984375,-0.0081787109375,0.0067138671875,-0.4503816793893129,0.2442748091603053,-0.3587786259541984
1646443356309.0212,-0.12078857421875,-0.00775146484375,0.00592041015625,-0.1297709923664122,0.2595419847328244,-0.3740458015267175
1646443356326.731,-0.12213134765625,-0.0079345703125,0.006103515625,0.2748091603053435,0.1984732824427481,-0.3816793893129771
1646443356344.2578,-0.12335205078125,-0.00726318359375,0.0030517578125,0.2519083969465648,-0.1374045801526717,-0.3893129770992366
1646443356361.9424,-0.12091064453125,-0.00543212890625,0.0054931640625,0.7557251908396947,-0.0305343511450381,-0.4427480916030534
1646443356379.4128,-0.12152099609375,-0.00732421875,0.020263671875,1.2442748091603053,0.3129770992366412,-0.4045801526717557
1646443356397.0552,-0.12286376953125,-0.0064697265625,0.0072021484375,1.6488549618320612,0.2748091603053435,-0.4122137404580153
1646443356413.942,-0.121337890625,-0.0079345703125,0.0010986328125,0.9770992366412212,0.2519083969465648,-0.3740458015267175
1646443356430.6543,-0.118408203125,-0.0107421875,0.0108642578125,1.7938931297709924,0.1984732824427481,-0.4045801526717557
1646443356447.5117,-0.12274169921875,-0.00726318359375,-6.103515625e-05,1.6641221374045805,0.6870229007633588,-0.3740458015267175
1646443356464.25,-0.123779296875,-0.01080322265625,0.00909423828125,1.0076335877862594,0.1755725190839694,-0.3740458015267175
1646443356481.118,-0.1214599609375,-0.007568359375,0.00469970703125,2.122137404580153,0.7938931297709924,-0.3740458015267175
1646443356497.8496,-0.1226806640625,-0.0079345703125,0.002197265625,1.870229007633588,0.3435114503816794,-0.4503816793893129
1646443356515.343,-0.12078857421875,-0.01171875,0.029296875,2.0610687022900764,0.4809160305343511,-0.3740458015267175
1646443356532.823,-0.123046875,-0.00860595703125,0.007080078125,1.6106870229007633,0.2519083969465648,-0.4045801526717557
1646443356550.47,-0.1229248046875,-0.00677490234375,0.00848388671875,2.519083969465649,0.4809160305343511,-0.3893129770992366
1646443356568.0176,-0.1171875,-0.0107421875,0.01708984375,1.5267175572519085,0.2595419847328244,-0.3816793893129771
1646443356585.5574,-0.12255859375,-0.00714111328125,-0.0006103515625,1.381679389312977,0.3893129770992366,-0.4045801526717557
1646443356603.1858,-0.12384033203125,-0.009521484375,0.01763916015625,1.4351145038167938,0.0229007633587786,-0.3969465648854962
1646443356619.8462,-0.12030029296875,-0.00909423828125,0.0186767578125,1.2290076335877862,0.0305343511450381,-0.4351145038167939
1646443356636.699,-0.12127685546875,-0.00738525390625,0.00518798828125,0.8931297709923665,0.1603053435114503,-0.3969465648854962
1646443356653.4,-0.12139892578125,-0.00701904296875,0.00653076171875,1.267175572519084,0.1068702290076335,-0.3969465648854962
1646443356670.2532,-0.122314453125,-0.00604248046875,0.00323486328125,1.0381679389312977,0.1374045801526717,-0.3893129770992366
1646443356686.95,-0.1201171875,-0.00762939453125,0.0054931640625,0.9389312977099236,-0.0687022900763358,-0.4503816793893129
1646443356703.9294,-0.120849609375,-0.008544921875,0.0052490234375,1.1145038167938932,0.3511450381679389,-0.3740458015267175
1646443356721.5835,-0.12115478515625,-0.00909423828125,0.013916015625,0.7404580152671756,-0.0534351145038167,-0.4351145038167939
1646443356739.046,-0.121826171875,-0.0037841796875,0.00091552734375,1.213740458015267,0.7557251908396947,-0.3969465648854962
1646443356756.7449,-0.12054443359375,-0.00982666015625,0.007568359375,0.732824427480916,0.0381679389312977,-0.3893129770992366
1646443356774.2852,-0.1165771484375,-0.01104736328125,0.0067138671875,1.366412213740458,0.6412213740458015,-0.3740458015267175
1646443356791.987,-0.119873046875,-0.00872802734375,-0.0098876953125,0.6946564885496184,0.3587786259541984,-0.3816793893129771
1646443356809.3896,-0.1212158203125,-0.01165771484375,0.01727294921875,0.5038167938931297,0.0610687022900763,-0.3893129770992366
1646443356826.1057,-0.11993408203125,-0.0068359375,0.0009765625,0.900763358778626,0.4503816793893129,-0.3816793893129771
1646443356842.9712,-0.12152099609375,-0.00958251953125,0.00518798828125,0.5038167938931297,0.4580152671755725,-0.3587786259541984
1646443356859.6602,-0.1209716796875,-0.0096435546875,0.00970458984375,0.7022900763358778,-0.015267175572519,-0.3969465648854962
1646443356876.483,-0.1220703125,-0.009765625,0.0205078125,0.0381679389312977,-0.1145038167938931,-0.4045801526717557
1646443356893.1638,-0.123046875,-0.00689697265625,0.01776123046875,0.2595419847328244,0.2442748091603053,-0.3893129770992366
1646443356910.3755,-0.12408447265625,-0.00640869140625,0.00738525390625,0.4122137404580153,0.2442748091603053,-0.3511450381679389
1646443356927.8513,-0.1209716796875,-0.007080078125,0.00732421875,1.0229007633587786,0.1145038167938931,-0.3893129770992366
1646443356945.5117,-0.123046875,-0.0042724609375,0.002197265625,1.0076335877862594,0.1679389312977099,-0.4198473282442748
1646443356963.0774,-0.12030029296875,-0.0072021484375,0.01507568359375,1.5114503816793894,0.2366412213740458,-0.4274809160305343
1646443356980.5654,-0.12054443359375,-0.00653076171875,0.01153564453125,1.7557251908396947,0.3587786259541984,-0.3206106870229007
1646443356998.2598,-0.1207275390625,-0.010009765625,0.02227783203125,1.4198473282442747,0.1603053435114503,-0.3511450381679389
1646443357015.5012,-0.12127685546875,-0.01177978515625,-0.001220703125,1.1374045801526718,0.183206106870229,-0.3969465648854962
1646443357032.4077,-0.12176513671875,-0.00750732421875,0.00848388671875,0.732824427480916,0.0687022900763358,-0.4122137404580153
1646443357049.1057,-0.12408447265625,-0.00701904296875,0.0069580078125,1.3282442748091603,0.7862595419847328,-0.3740458015267175
1646443357065.968,-0.1182861328125,-0.0103759765625,0.00750732421875,1.0076335877862594,-0.1603053435114503,-0.3816793893129771
1646443357082.6492,-0.12188720703125,-0.0120849609375,0.01593017578125,0.7251908396946565,0.1297709923664122,-0.4198473282442748
1646443357099.3423,-0.12054443359375,-0.010498046875,0.01708984375,0.4198473282442748,0.5801526717557252,-0.3511450381679389
1646443357116.7344,-0.120849609375,-0.0091552734375,0.01751708984375,0.1603053435114503,0.6793893129770993,-0.366412213740458
1646443357134.2732,-0.120849609375,-0.00823974609375,0.0135498046875,-0.0763358778625954,1.0,-0.3893129770992366
1646443357151.9717,-0.1197509765625,-0.0145263671875,0.014892578125,-0.0534351145038167,0.1755725190839694,-0.3969465648854962
1646443357169.5007,-0.11962890625,-0.00848388671875,0.00628662109375,-0.6106870229007634,0.0916030534351145,-0.2900763358778626
1646443357187.1482,-0.12164306640625,-0.0079345703125,0.00946044921875,-0.6641221374045801,0.1755725190839694,-0.4122137404580153
1646443357204.6516,-0.1212158203125,-0.00872802734375,0.0079345703125,-0.5801526717557252,0.3129770992366412,-0.2977099236641221
1646443357223.6177,-0.111083984375,0.00189208984375,-0.01348876953125,0.5190839694656488,-0.1068702290076335,-0.4427480916030534
1646443357240.2993,-0.12237548828125,-0.01092529296875,0.01837158203125,0.6412213740458015,-0.2519083969465648,-0.3740458015267175
1646443357256.9612,-0.12158203125,-0.00628662109375,0.01092529296875,0.8396946564885496,-0.0763358778625954,-0.3435114503816794
1646443357273.854,-0.1214599609375,-0.0054931640625,-0.00537109375,1.1297709923664123,0.9236641221374046,-0.3129770992366412
1646443357290.5735,-0.1219482421875,-0.0087890625,0.01263427734375,1.5572519083969465,0.1297709923664122,-0.4198473282442748
1646443357307.7598,-0.12255859375,-0.00634765625,0.00177001953125,1.938931297709924,0.3053435114503817,-0.4122137404580153
1646443357325.2583,-0.1219482421875,-0.00921630859375,0.024658203125,1.83206106870229,0.2519083969465648,-0.3969465648854962
1646443357342.9104,-0.119384765625,-0.008056640625,0.018310546875,2.137404580152672,0.2748091603053435,-0.4198473282442748
1646443357360.384,-0.12506103515625,-0.01043701171875,0.0296630859375,2.5572519083969465,0.0687022900763358,-0.3816793893129771
1646443357377.8735,-0.11798095703125,-0.00714111328125,0.00311279296875,2.030534351145038,0.3358778625954198,-0.4122137404580153
1646443357395.6294,-0.12384033203125,-0.007568359375,0.00286865234375,1.381679389312977,0.3358778625954198,-0.4198473282442748
1646443357412.938,-0.12060546875,-0.01220703125,0.0159912109375,0.7099236641221374,-0.0229007633587786,-0.4427480916030534
1646443357429.8103,-0.12030029296875,-0.0101318359375,0.0106201171875,0.6030534351145038,0.1603053435114503,-0.4122137404580153
1646443357446.5193,-0.12127685546875,-0.00762939453125,-0.00445556640625,0.9083969465648856,0.7709923664122137,-0.3893129770992366
1646443357463.3535,-0.120361328125,-0.0091552734375,0.0079345703125,1.0076335877862594,0.5038167938931297,-0.3893129770992366
1646443357480.073,-0.11993408203125,-0.00933837890625,0.008544921875,0.183206106870229,-0.1526717557251908,-0.4045801526717557
1646443357496.8994,-0.11883544921875,-0.00738525390625,0.0042724609375,0.9083969465648856,0.4198473282442748,-0.3587786259541984
1646443357514.094,-0.12274169921875,-0.007568359375,0.009033203125,0.8549618320610687,0.2213740458015267,-0.3435114503816794
1646443357531.552,-0.12127685546875,-0.008544921875,0.014404296875,0.7862595419847328,0.2137404580152671,-0.4274809160305343
1646443357549.2498,-0.122314453125,-0.007568359375,0.00408935546875,0.7709923664122137,0.4045801526717557,-0.3893129770992366
1646443357566.7878,-0.11920166015625,-0.0050048828125,0.00213623046875,1.2442748091603053,0.2900763358778626,-0.3740458015267175
1646443357584.4507,-0.1202392578125,-0.00775146484375,0.01556396484375,0.7709923664122137,0.0534351145038167,-0.3740458015267175
1646443357601.9475,-0.1221923828125,-0.00677490234375,0.014404296875,1.4732824427480915,0.2900763358778626,-0.3206106870229007
1646443357619.1914,-0.12054443359375,-0.00750732421875,-0.00189208984375,1.3282442748091603,0.5419847328244275,-0.3129770992366412
1646443357635.927,-0.12152099609375,-0.00689697265625,-0.0096435546875,1.3282442748091603,0.6259541984732825,-0.3740458015267175
1646443357652.623,-0.1207275390625,-0.00811767578125,0.01422119140625,1.076335877862595,0.5725190839694656,-0.3816793893129771
1646443357669.517,-0.12060546875,-0.0052490234375,0.00164794921875,1.6641221374045805,0.9236641221374046,-0.366412213740458
1646443357686.228,-0.1204833984375,-0.00640869140625,0.004150390625,1.931297709923664,0.4274809160305343,-0.4198473282442748
1646443357703.0986,-0.12432861328125,-0.00616455078125,0.0069580078125,2.106870229007633,0.2671755725190839,-0.4122137404580153
1646443357720.5503,-0.1202392578125,-0.00537109375,-0.00433349609375,1.984732824427481,0.0839694656488549,-0.4045801526717557
1646443357738.234,-0.1217041015625,-0.009033203125,0.01885986328125,2.2213740458015265,0.5038167938931297,-0.3816793893129771
1646443357755.7166,-0.123291015625,-0.00823974609375,-0.00360107421875,1.0,0.015267175572519,-0.3587786259541984
1646443357773.3965,-0.12420654296875,-0.0078125,-0.00274658203125,1.3893129770992367,0.7557251908396947,-0.3587786259541984
1646443357790.8745,-0.11968994140625,-0.00830078125,-0.0009765625,0.9236641221374046,-0.3282442748091603,-0.5190839694656488
1646443357808.3506,-0.1204833984375,-0.00726318359375,0.00244140625,1.931297709923664,0.6946564885496184,-0.366412213740458
1646443357825.4949,-0.11859130859375,-0.0062255859375,0.00408935546875,2.6717557251908395,0.5648854961832062,-0.4427480916030534
1646443357842.2224,-0.1177978515625,-0.01007080078125,0.02081298828125,2.2595419847328246,-0.4198473282442748,-0.4732824427480916
1646443357859.0557,-0.1201171875,-0.0069580078125,0.005126953125,2.33587786259542,0.1984732824427481,-0.3511450381679389
1646443357875.7302,-0.1240234375,-0.0084228515625,0.0169677734375,2.66412213740458,0.1679389312977099,-0.4351145038167939
1646443357892.6558,-0.12347412109375,-0.01031494140625,0.01141357421875,1.3587786259541983,0.4351145038167939,-0.3816793893129771
1646443357909.3467,-0.1207275390625,-0.00323486328125,-0.00689697265625,1.916030534351145,0.3740458015267175,-0.3740458015267175
1646443357926.9795,-0.1192626953125,-0.00860595703125,0.00897216796875,1.618320610687023,0.0,-0.4045801526717557
1646443357944.626,-0.1229248046875,-0.0108642578125,0.023193359375,1.923664122137405,0.2442748091603053,-0.3740458015267175
1646443357962.1057,-0.1204833984375,-0.0064697265625,-0.0009765625,1.4122137404580153,0.3816793893129771,-0.3893129770992366
1646443357979.7568,-0.12017822265625,-0.0169677734375,0.0330810546875,0.5190839694656488,-0.7862595419847328,-0.4503816793893129
1646443357997.2598,-0.118896484375,-0.0118408203125,0.03448486328125,1.6412213740458017,0.1297709923664122,-0.3587786259541984
1646443358014.981,-0.1263427734375,-0.01025390625,0.0069580078125,1.2290076335877862,0.4198473282442748,-0.3511450381679389
1646443358031.7356,-0.1201171875,-0.0072021484375,0.010986328125,1.3282442748091603,0.1755725190839694,-0.4198473282442748
1646443358048.4136,-0.1234130859375,-0.00946044921875,0.004150390625,0.8396946564885496,0.1984732824427481,-0.3282442748091603
1646443358065.3384,-0.1226806640625,-0.01123046875,0.0064697265625,1.4580152671755726,0.099236641221374,-0.3740458015267175
1646443358082.015,-0.120361328125,-0.00958251953125,-0.000732421875,0.8320610687022901,0.1221374045801526,-0.4198473282442748
1646443358098.809,-0.12298583984375,-0.0047607421875,-0.0133056640625,1.297709923664122,0.3358778625954198,-0.4351145038167939
1646443358115.902,-0.12176513671875,-0.0062255859375,0.00604248046875,0.6030534351145038,0.1221374045801526,-0.3740458015267175
1646443358133.8074,-0.11968994140625,-0.00531005859375,0.00238037109375,0.0687022900763358,0.3053435114503817,-0.3282442748091603
1646443358151.3362,-0.120849609375,-0.01129150390625,0.0313720703125,1.0916030534351144,0.3969465648854962,-0.4122137404580153
1646443358169.0278,-0.12652587890625,-0.0042724609375,0.00872802734375,1.2748091603053435,0.3511450381679389,-0.3587786259541984
1646443358186.5005,-0.11981201171875,-0.00592041015625,0.04534912109375,3.2977099236641223,0.549618320610687,-0.3969465648854962
1646443358203.9822,-0.1219482421875,-0.01025390625,-0.00079345703125,2.763358778625954,-0.3358778625954198,-0.2900763358778626
1646443358227.9722,-0.1224365234375,-0.009033203125,-0.001708984375,2.3435114503816794,0.549618320610687,-0.4045801526717557
1646443358245.399,-0.12115478515625,-0.0098876953125,0.0054931640625,1.4580152671755726,0.3129770992366412,-0.3969465648854962
1646443358263.1418,-0.12200927734375,-0.0123291015625,0.025634765625,1.534351145038168,-0.1984732824427481,-0.4580152671755725
1646443358280.6284,-0.119140625,-0.007080078125,0.0079345703125,1.763358778625954,0.2900763358778626,-0.4045801526717557
1646443358298.338,-0.11920166015625,-0.01123046875,0.004150390625,1.9083969465648856,0.4045801526717557,-0.4198473282442748
1646443358315.9663,-0.1226806640625,-0.009521484375,0.01959228515625,2.282442748091603,0.6183206106870229,-0.3816793893129771
1646443358332.6492,-0.1217041015625,-0.00701904296875,-0.0052490234375,2.1297709923664123,0.4427480916030534,-0.3893129770992366
1646443358349.5537,-0.12030029296875,-0.00775146484375,0.01104736328125,1.5725190839694656,0.0687022900763358,-0.4274809160305343
1646443358366.2476,-0.12445068359375,-0.0057373046875,-0.0108642578125,2.0839694656488548,0.7786259541984732,-0.3435114503816794
1646443358383.0923,-0.122314453125,-0.0086669921875,0.02337646484375,2.732824427480916,0.0381679389312977,-0.4427480916030534
1646443358399.793,-0.12200927734375,-0.00616455078125,0.0155029296875,2.717557251908397,0.2290076335877862,-0.4351145038167939
1646443358417.02,-0.1236572265625,-0.00714111328125,0.0157470703125,3.2977099236641223,0.5114503816793893,-0.4427480916030534
1646443358434.5107,-0.12152099609375,-0.00836181640625,0.0205078125,4.015267175572519,0.3587786259541984,-0.4732824427480916
1646443358452.0256,-0.1240234375,-0.01104736328125,0.02398681640625,3.114503816793893,-0.2290076335877862,-0.4809160305343511
1646443358469.6943,-0.12078857421875,-0.009033203125,0.00323486328125,3.6793893129770994,0.3969465648854962,-0.4198473282442748
1646443358487.179,-0.12530517578125,-0.00531005859375,-0.00665283203125,3.67175572519084,0.3358778625954198,-0.4274809160305343
1646443358504.9194,-0.12744140625,-0.0103759765625,0.022705078125,3.3893129770992365,0.5572519083969466,-0.3893129770992366
1646443358522.344,-0.10223388671875,-0.01287841796875,0.01898193359375,2.9618320610687023,0.2671755725190839,-0.4122137404580153
1646443358539.1614,-0.12225341796875,-0.01043701171875,0.00335693359375,4.396946564885496,1.3053435114503815,-0.3969465648854962
1646443358555.8884,-0.12054443359375,-0.01141357421875,0.0233154296875,2.7557251908396947,0.0839694656488549,-0.3969465648854962
1646443358572.7373,-0.12554931640625,-0.00408935546875,-0.01495361328125,3.145038167938931,0.3511450381679389,-0.4351145038167939
1646443358589.465,-0.1253662109375,-0.0076904296875,0.0068359375,3.480916030534351,0.6030534351145038,-0.3969465648854962
1646443358606.1812,-0.1214599609375,-0.00054931640625,-0.02020263671875,3.7022900763358777,1.083969465648855,-0.4274809160305343
1646443358623.4143,-0.1202392578125,-0.01202392578125,0.03466796875,3.977099236641221,0.4274809160305343,-0.4809160305343511
1646443358640.8823,-0.1253662109375,-0.01324462890625,0.0338134765625,2.9083969465648853,0.1297709923664122,-0.4198473282442748
1646443358658.6204,-0.12335205078125,-0.0089111328125,-0.00750732421875,2.900763358778626,0.5954198473282443,-0.3587786259541984
1646443358676.1694,-0.12335205078125,-0.01092529296875,0.002685546875,3.3053435114503817,0.4961832061068702,-0.4045801526717557
1646443358693.8477,-0.11846923828125,-0.01226806640625,0.02154541015625,2.984732824427481,0.7633587786259542,-0.4122137404580153
1646443358711.3176,-0.1239013671875,-0.01129150390625,0.00701904296875,2.5114503816793894,0.6412213740458015,-0.366412213740458
1646443358728.446,-0.12030029296875,-0.01617431640625,0.0087890625,2.3587786259541983,0.5038167938931297,-0.6106870229007634
1646443358745.35,-0.12188720703125,-0.01507568359375,0.01629638671875,1.938931297709924,0.1603053435114503,-0.3358778625954198
1646443358762.0444,-0.12115478515625,-0.0089111328125,0.0020751953125,1.1603053435114503,0.1908396946564885,-0.3893129770992366
1646443358778.949,-0.1229248046875,-0.0096435546875,0.0169677734375,1.5801526717557253,0.0381679389312977,-0.3435114503816794
1646443358795.6472,-0.12030029296875,-0.0069580078125,0.0089111328125,1.4580152671755726,0.3053435114503817,-0.3893129770992366
1646443358812.476,-0.1214599609375,-0.0076904296875,0.00762939453125,1.4351145038167938,0.3053435114503817,-0.4045801526717557
1646443358829.7349,-0.12115478515625,-0.0068359375,0.0028076171875,1.1221374045801529,0.2824427480916031,-0.3969465648854962
1646443358847.2043,-0.122314453125,-0.00762939453125,0.00616455078125,0.8396946564885496,0.2519083969465648,-0.4274809160305343
1646443358864.9463,-0.12005615234375,-0.0091552734375,0.00726318359375,0.732824427480916,0.2824427480916031,-0.3893129770992366
1646443358882.463,-0.12152099609375,-0.00323486328125,-0.00335693359375,1.083969465648855,0.5114503816793893,-0.3893129770992366
1646443358900.107,-0.121337890625,-0.0064697265625,0.00140380859375,1.4961832061068705,0.3511450381679389,-0.4122137404580153
1646443358917.7996,-0.12481689453125,-0.008056640625,0.00634765625,1.9083969465648856,0.3053435114503817,-0.4351145038167939
1646443358934.6296,-0.12042236328125,-0.00909423828125,0.0164794921875,2.3282442748091605,0.2595419847328244,-0.4503816793893129
1646443358951.3408,-0.12255859375,-0.008544921875,0.01666259765625,2.114503816793893,-0.1374045801526717,-0.465648854961832
1646443358968.1572,-0.1226806640625,-0.002685546875,-0.00738525390625,2.595419847328244,0.1679389312977099,-0.3893129770992366
1646443358984.892,-0.11968994140625,-0.00628662109375,-0.00445556640625,3.2442748091603053,0.8015267175572519,-0.4427480916030534
1646443359001.5906,-0.12109375,-0.0045166015625,-0.00048828125,3.442748091603053,0.8778625954198473,-0.3893129770992366
1646443359018.5625,-0.1209716796875,-0.00872802734375,0.0166015625,3.282442748091603,-0.183206106870229,-0.4580152671755725
1646443359036.217,-0.12115478515625,-0.00921630859375,0.0155029296875,3.282442748091603,0.5801526717557252,-0.4198473282442748
1646443359053.8972,-0.12078857421875,-0.01055908203125,0.015625,2.946564885496183,-0.1908396946564885,-0.4274809160305343
1646443359071.3591,-0.1220703125,-0.01104736328125,0.0198974609375,3.854961832061069,0.3435114503816794,-0.4122137404580153
1646443359089.0254,-0.12249755859375,-0.0078125,-0.001953125,3.793893129770992,0.6717557251908397,-0.4045801526717557
1646443359106.515,-0.1251220703125,-0.005859375,-0.00457763671875,3.213740458015267,0.4045801526717557,-0.4198473282442748
1646443359123.9648,-0.12237548828125,-0.00994873046875,-0.0050048828125,2.7557251908396947,0.5190839694656488,-0.4274809160305343
1646443359141.005,-0.12249755859375,-0.008056640625,0.00628662109375,2.6564885496183206,0.2900763358778626,-0.4503816793893129
1646443359157.7517,-0.1192626953125,-0.00799560546875,-0.00732421875,2.66412213740458,0.7557251908396947,-0.3969465648854962
1646443359174.6406,-0.11956787109375,-0.0064697265625,0.0057373046875,2.5877862595419847,0.4198473282442748,-0.3969465648854962
1646443359191.366,-0.122314453125,-0.006103515625,0.00018310546875,2.3740458015267176,0.7022900763358778,-0.3587786259541984
1646443359208.203,-0.1185302734375,-0.0054931640625,0.00152587890625,2.3969465648854964,0.6335877862595419,-0.4045801526717557
1646443359227.3215,-0.123291015625,-0.00506591796875,0.0025634765625,1.7251908396946565,0.2290076335877862,-0.4274809160305343
1646443359244.97,-0.12249755859375,-0.00732421875,0.00189208984375,1.3740458015267176,0.0763358778625954,-0.4122137404580153
1646443359262.5244,-0.122802734375,-0.0069580078125,0.01385498046875,1.5572519083969465,0.2519083969465648,-0.4045801526717557
1646443359280.0283,-0.12091064453125,-0.0067138671875,0.00347900390625,1.847328244274809,0.4885496183206106,-0.4198473282442748
1646443359297.725,-0.12396240234375,-0.0091552734375,0.00225830078125,2.1603053435114505,0.366412213740458,-0.4045801526717557
1646443359315.2188,-0.12176513671875,-0.0079345703125,0.00885009765625,2.137404580152672,0.549618320610687,-0.3587786259541984
1646443359332.5486,-0.12188720703125,-0.0087890625,0.0076904296875,2.198473282442748,0.2824427480916031,-0.4580152671755725
1646443359349.2273,-0.11993408203125,-0.0086669921875,0.009765625,1.9083969465648856,0.4885496183206106,-0.4122137404580153
1646443359366.1108,-0.121337890625,-0.00592041015625,0.00311279296875,1.83206106870229,0.1526717557251908,-0.4198473282442748
1646443359382.7854,-0.12188720703125,-0.00634765625,-0.0064697265625,1.8244274809160304,0.2519083969465648,-0.3816793893129771
1646443359399.5146,-0.11895751953125,-0.01043701171875,0.02325439453125,2.4885496183206106,0.2824427480916031,-0.4503816793893129
1646443359416.3977,-0.12261962890625,-0.01129150390625,0.02020263671875,1.5954198473282444,-0.1450381679389313,-0.4198473282442748
1646443359433.889,-0.12255859375,-0.0093994140625,0.001953125,2.030534351145038,0.2671755725190839,-0.4122137404580153
1646443359451.5652,-0.11932373046875,-0.0106201171875,0.0126953125,1.6717557251908397,0.5572519083969466,-0.3435114503816794
1646443359469.0637,-0.12213134765625,-0.010986328125,0.02197265625,1.6717557251908397,0.1984732824427481,-0.3740458015267175
1646443359486.7097,-0.1209716796875,-0.0084228515625,0.013427734375,2.381679389312977,0.4122137404580153,-0.4198473282442748
1646443359504.2898,-0.12060546875,-0.0052490234375,-0.01434326171875,1.4122137404580153,0.549618320610687,-0.3435114503816794
1646443359521.9973,-0.1241455078125,-0.009521484375,-0.00201416015625,1.9618320610687023,0.6412213740458015,-0.3893129770992366
1646443359538.9038,-0.12188720703125,-0.0078125,0.0003662109375,1.6641221374045805,0.465648854961832,-0.3816793893129771
1646443359555.604,-0.122314453125,-0.006591796875,0.00445556640625,2.183206106870229,0.4885496183206106,-0.3740458015267175
1646443359572.4707,-0.1231689453125,-0.0084228515625,0.0096435546875,1.862595419847328,0.2442748091603053,-0.3893129770992366
1646443359589.1694,-0.118896484375,-0.0084228515625,0.01708984375,1.5267175572519085,0.2290076335877862,-0.3969465648854962
1646443359606.043,-0.1201171875,-0.00531005859375,0.00994873046875,1.7404580152671756,0.1145038167938931,-0.4045801526717557
1646443359622.991,-0.122314453125,-0.00909423828125,0.015625,2.2595419847328246,0.3129770992366412,-0.4427480916030534
1646443359640.7295,-0.1201171875,-0.0059814453125,0.01287841796875,3.1908396946564888,0.5877862595419847,-0.4351145038167939
1646443359658.2349,-0.12200927734375,-0.00506591796875,-0.001708984375,3.534351145038168,0.732824427480916,-0.4503816793893129
1646443359675.7373,-0.11956787109375,-0.00714111328125,0.00726318359375,2.435114503816794,0.0076335877862595,-0.4198473282442748
1646443359693.4038,-0.12109375,-0.008056640625,0.02203369140625,2.8091603053435112,-0.015267175572519,-0.4198473282442748
1646443359710.8716,-0.11761474609375,-0.01177978515625,0.0286865234375,3.312977099236641,0.1908396946564885,-0.4580152671755725
1646443359728.4746,-0.1197509765625,-0.0086669921875,0.01806640625,2.900763358778626,-0.1450381679389313,-0.4198473282442748
1646443359745.1765,-0.12261962890625,-0.0106201171875,0.02593994140625,3.946564885496183,0.5725190839694656,-0.4351145038167939
1646443359762.0796,-0.12359619140625,-0.0096435546875,0.00390625,3.053435114503817,0.3206106870229007,-0.4045801526717557
1646443359778.775,-0.11798095703125,-0.01068115234375,0.01971435546875,3.3969465648854964,0.3206106870229007,-0.4198473282442748
1646443359795.4978,-0.1278076171875,-0.0093994140625,-0.00665283203125,3.0076335877862594,0.7709923664122137,-0.4045801526717557
1646443359812.37,-0.12322998046875,-0.01123046875,0.01251220703125,3.175572519083969,0.6793893129770993,-0.3740458015267175
1646443359829.5227,-0.1190185546875,-0.01165771484375,0.0181884765625,2.7709923664122136,0.4122137404580153,-0.3587786259541984
1646443359847.1716,-0.12042236328125,-0.00653076171875,0.00897216796875,2.7709923664122136,0.2519083969465648,-0.3893129770992366
1646443359864.659,-0.1234130859375,-0.009033203125,0.0009765625,2.4656488549618323,0.4427480916030534,-0.3587786259541984
1646443359882.3596,-0.117431640625,-0.00555419921875,-0.0057373046875,3.4656488549618323,0.7175572519083969,-0.3587786259541984
1646443359899.8738,-0.12042236328125,-0.00958251953125,0.012939453125,2.7099236641221376,0.0763358778625954,-0.4198473282442748
1646443359917.4238,-0.12347412109375,-0.01214599609375,0.01641845703125,2.687022900763359,0.3816793893129771,-0.4198473282442748
1646443359934.8447,-0.122314453125,-0.011962890625,0.0213623046875,2.6564885496183206,0.2595419847328244,-0.3740458015267175
1646443359951.543,-0.120361328125,-0.0074462890625,-0.00543212890625,2.145038167938931,0.0916030534351145,-0.3358778625954198
1646443359968.4392,-0.12127685546875,-0.00714111328125,0.00311279296875,3.2977099236641223,0.5572519083969466,-0.4198473282442748
1646443359985.1472,-0.11981201171875,-0.009521484375,0.02252197265625,2.4198473282442747,0.4580152671755725,-0.4045801526717557
1646443360001.9973,-0.117919921875,-0.00787353515625,0.00018310546875,1.7938931297709924,0.2213740458015267,-0.4045801526717557
1646443360018.6592,-0.119384765625,-0.01007080078125,0.00927734375,1.6106870229007633,0.1068702290076335,-0.3740458015267175
1646443360035.83,-0.12042236328125,-0.0069580078125,0.0062255859375,2.595419847328244,0.2900763358778626,-0.4198473282442748
1646443360053.512,-0.12042236328125,-0.0057373046875,0.0009765625,2.9083969465648853,0.4427480916030534,-0.4274809160305343
1646443360070.9734,-0.12249755859375,-0.0068359375,0.0067138671875,2.6106870229007635,0.3816793893129771,-0.3969465648854962
1646443360088.6948,-0.12298583984375,-0.0086669921875,0.01611328125,1.900763358778626,-0.2671755725190839,-0.4427480916030534
1646443360106.226,-0.1209716796875,-0.00994873046875,0.0247802734375,2.541984732824428,0.0458015267175572,-0.4045801526717557
1646443360123.9028,-0.11981201171875,-0.0064697265625,0.01788330078125,3.0916030534351147,0.5877862595419847,-0.4274809160305343
1646443360141.137,-0.12005615234375,-0.00189208984375,-0.0009765625,4.358778625954199,0.6946564885496184,-0.4274809160305343
1646443360158.0674,-0.12127685546875,-0.00921630859375,-0.0059814453125,3.801526717557252,0.6641221374045801,-0.4503816793893129
1646443360174.8325,-0.12091064453125,-0.0089111328125,0.01171875,4.305343511450381,0.4274809160305343,-0.4122137404580153
1646443360191.4788,-0.12261962890625,-0.0113525390625,0.0028076171875,3.9618320610687023,0.4961832061068702,-0.4427480916030534
1646443360208.367,-0.11932373046875,-0.01605224609375,0.028076171875,4.274809160305344,0.5801526717557252,-0.4809160305343511
1646443360227.0012,-0.12298583984375,-0.0078125,-0.00048828125,3.106870229007633,0.4198473282442748,-0.3969465648854962
1646443360244.6697,-0.1258544921875,-0.0047607421875,-0.01727294921875,3.0763358778625958,0.7938931297709924,-0.3511450381679389
1646443360262.1238,-0.12371826171875,-0.00933837890625,0.01922607421875,2.763358778625954,0.4274809160305343,-0.3587786259541984
1646443360279.789,-0.1214599609375,-0.0064697265625,0.0001220703125,3.236641221374046,0.7786259541984732,-0.4122137404580153
1646443360297.277,-0.1248779296875,-0.008056640625,0.0162353515625,3.1908396946564888,-0.1450381679389313,-0.4580152671755725
1646443360314.7627,-0.11895751953125,-0.0108642578125,0.03094482421875,3.33587786259542,0.099236641221374,-0.4961832061068702
1646443360332.4434,-0.1202392578125,-0.0128173828125,0.0157470703125,2.0610687022900764,0.2824427480916031,-0.4122137404580153
1646443360349.1282,-0.12335205078125,-0.00927734375,-0.00555419921875,2.633587786259542,0.6946564885496184,-0.4351145038167939
1646443360366.0098,-0.12200927734375,-0.00689697265625,-0.00860595703125,2.442748091603053,0.6946564885496184,-0.3740458015267175
1646443360382.7012,-0.119873046875,-0.00885009765625,0.00177001953125,1.954198473282443,0.5190839694656488,-0.3969465648854962
1646443360399.5315,-0.12353515625,-0.0126953125,0.020263671875,1.3206106870229009,0.3435114503816794,-0.3511450381679389
1646443360416.2373,-0.1231689453125,-0.01055908203125,0.0177001953125,1.4961832061068705,0.1221374045801526,-0.3816793893129771
1646443360433.4265,-0.1212158203125,-0.0091552734375,0.02093505859375,0.9389312977099236,0.0229007633587786,-0.3511450381679389
1646443360451.129,-0.1190185546875,-0.00860595703125,0.007080078125,1.9770992366412212,0.2977099236641221,-0.4045801526717557
1646443360468.6765,-0.120361328125,-0.00457763671875,0.0015869140625,2.427480916030534,0.7251908396946565,-0.366412213740458
1646443360486.3538,-0.12115478515625,-0.00439453125,-0.001220703125,1.8244274809160304,0.2290076335877862,-0.3816793893129771
1646443360503.8438,-0.1202392578125,-0.0059814453125,0.005615234375,2.6259541984732824,0.3893129770992366,-0.3969465648854962
1646443360521.4976,-0.11981201171875,-0.0093994140625,0.0189208984375,2.49618320610687,0.1526717557251908,-0.4580152671755725
1646443360538.7217,-0.1195068359375,-0.008056640625,0.00762939453125,3.3969465648854964,0.6183206106870229,-0.4198473282442748
1646443360555.6096,-0.11993408203125,-0.004638671875,-0.014404296875,2.8091603053435112,0.8931297709923665,-0.3358778625954198
1646443360572.3162,-0.12164306640625,-0.00927734375,0.0028076171875,3.1603053435114505,0.8091603053435115,-0.366412213740458
1646443360589.03,-0.1209716796875,-0.01177978515625,0.01239013671875,2.3740458015267176,0.0076335877862595,-0.4198473282442748
1646443360605.883,-0.1192626953125,-0.0103759765625,0.01385498046875,2.3206106870229006,0.0534351145038167,-0.3740458015267175
1646443360622.6138,-0.12237548828125,-0.00634765625,0.0054931640625,2.564885496183206,0.0610687022900763,-0.3893129770992366
1646443360640.0017,-0.11871337890625,-0.00640869140625,0.01177978515625,2.480916030534351,0.465648854961832,-0.4198473282442748
1646443360657.5413,-0.1192626953125,-0.00653076171875,0.00201416015625,2.6717557251908395,0.0839694656488549,-0.465648854961832
1646443360675.203,-0.12310791015625,-0.0048828125,0.0042724609375,2.786259541984733,0.3435114503816794,-0.4122137404580153
1646443360692.6958,-0.12017822265625,-0.0057373046875,0.01190185546875,3.610687022900764,-0.1068702290076335,-0.4351145038167939
1646443360710.1858,-0.12066650390625,-0.00909423828125,0.0108642578125,4.213740458015267,0.6183206106870229,-0.4045801526717557
1646443360727.855,-0.12176513671875,-0.0079345703125,0.01947021484375,3.763358778625954,0.5725190839694656,-0.4122137404580153
1646443360744.8948,-0.12457275390625,-0.01336669921875,0.0194091796875,2.8931297709923665,0.1221374045801526,-0.4274809160305343
1646443360761.7944,-0.11932373046875,-0.01123046875,0.00555419921875,3.7480916030534353,0.1755725190839694,-0.4045801526717557
1646443360778.486,-0.12298583984375,-0.01837158203125,0.03900146484375,2.954198473282443,-0.1679389312977099,-0.4580152671755725
1646443360795.391,-0.12286376953125,-0.01080322265625,0.00762939453125,3.33587786259542,0.2671755725190839,-0.4045801526717557
1646443360812.1086,-0.11566162109375,-0.00714111328125,-0.00250244140625,4.473282442748092,0.7480916030534351,-0.4427480916030534
1646443360829.0835,-0.12298583984375,-0.0087890625,0.01171875,3.3740458015267176,0.2061068702290076,-0.4427480916030534
1646443360846.6458,-0.11639404296875,-0.00738525390625,-0.0189208984375,3.5572519083969465,0.732824427480916,-0.4122137404580153
1646443360864.1235,-0.119873046875,-0.01171875,0.0196533203125,2.946564885496183,0.0534351145038167,-0.4198473282442748
1646443360881.842,-0.12078857421875,-0.00897216796875,0.013916015625,3.3282442748091605,0.3435114503816794,-0.4274809160305343
1646443360899.3562,-0.1195068359375,-0.00933837890625,0.021240234375,3.1297709923664123,0.2824427480916031,-0.4351145038167939
1646443360917.0083,-0.1229248046875,-0.00750732421875,0.01922607421875,3.435114503816794,0.6793893129770993,-0.4045801526717557
1646443360934.55,-0.12225341796875,-0.00762939453125,0.01153564453125,2.885496183206107,0.099236641221374,-0.4580152671755725
1646443360951.4314,-0.1224365234375,-0.01031494140625,0.01080322265625,2.977099236641221,0.4961832061068702,-0.4274809160305343
1646443360968.1218,-0.12176513671875,-0.0086669921875,0.01507568359375,3.3206106870229006,0.2977099236641221,-0.3969465648854962
1646443360984.843,-0.11920166015625,-0.0074462890625,0.01507568359375,2.7480916030534357,0.3282442748091603,-0.3969465648854962
1646443361001.677,-0.12255859375,-0.0032958984375,-0.0087890625,2.549618320610687,0.5267175572519084,-0.4045801526717557
1646443361018.4036,-0.1265869140625,-0.00885009765625,0.02020263671875,2.427480916030534,-0.0839694656488549,-0.4274809160305343
1646443361035.748,-0.12188720703125,-0.0087890625,0.01763916015625,2.946564885496183,0.3129770992366412,-0.4122137404580153
1646443361053.2163,-0.11700439453125,-0.01141357421875,0.00537109375,2.9083969465648853,0.3511450381679389,-0.4198473282442748
1646443361070.8872,-0.123046875,-0.009521484375,0.00946044921875,2.7938931297709924,0.4351145038167939,-0.3893129770992366
1646443361088.3577,-0.1197509765625,-0.01019287109375,0.01806640625,2.740458015267176,-0.0229007633587786,-0.4045801526717557
1646443361105.827,-0.119384765625,-0.0087890625,0.019775390625,3.0610687022900764,0.3587786259541984,-0.4045801526717557
1646443361123.4795,-0.12066650390625,-0.00994873046875,0.0291748046875,3.3587786259541983,0.6259541984732825,-0.4045801526717557
1646443361140.817,-0.1217041015625,-0.01239013671875,0.02752685546875,3.015267175572519,0.1603053435114503,-0.4198473282442748
1646443361157.776,-0.1226806640625,-0.0107421875,0.02325439453125,3.0076335877862594,0.2519083969465648,-0.4274809160305343
1646443361174.4846,-0.12469482421875,-0.0120849609375,0.02618408203125,3.1908396946564888,0.3129770992366412,-0.4351145038167939
1646443361191.385,-0.120849609375,-0.0062255859375,-0.00836181640625,2.854961832061069,0.3893129770992366,-0.3816793893129771
1646443361208.0896,-0.1192626953125,-0.00823974609375,0.000732421875,2.4580152671755724,0.2595419847328244,-0.4122137404580153
1646443361226.7097,-0.12078857421875,-0.0084228515625,0.00469970703125,2.099236641221374,0.1374045801526717,-0.4503816793893129
1646443361243.9634,-0.1214599609375,-0.0074462890625,-0.00555419921875,3.0916030534351147,0.5419847328244275,-0.3893129770992366
1646443361261.428,-0.1187744140625,-0.0130615234375,0.03546142578125,3.0229007633587788,-0.0305343511450381,-0.4732824427480916
1646443361279.1108,-0.1219482421875,-0.00872802734375,0.01544189453125,2.16793893129771,0.0229007633587786,-0.4580152671755725
1646443361296.5862,-0.11944580078125,-0.0074462890625,0.00726318359375,2.267175572519084,-0.3816793893129771,-0.4885496183206106
1646443361314.3098,-0.12139892578125,-0.01068115234375,0.02093505859375,2.7709923664122136,0.4580152671755725,-0.4274809160305343
1646443361331.8694,-0.12213134765625,-0.00439453125,-0.0101318359375,2.6946564885496183,0.1297709923664122,-0.4274809160305343
1646443361349.0413,-0.12060546875,-0.00787353515625,-0.0028076171875,2.9618320610687023,0.1374045801526717,-0.4580152671755725
1646443361365.7407,-0.1190185546875,-0.0078125,-0.00201416015625,2.687022900763359,0.2748091603053435,-0.4351145038167939
1646443361382.467,-0.11724853515625,-0.01153564453125,0.0167236328125,3.404580152671756,0.5648854961832062,-0.4351145038167939
1646443361399.3394,-0.12445068359375,-0.01080322265625,-0.0062255859375,2.16793893129771,0.6335877862595419,-0.3740458015267175
1646443361416.0645,-0.12060546875,-0.01055908203125,0.01611328125,2.0763358778625958,0.099236641221374,-0.3358778625954198
1646443361433.07,-0.12335205078125,-0.01104736328125,0.0211181640625,2.2213740458015265,0.5572519083969466,-0.3969465648854962
1646443361450.6345,-0.119384765625,-0.0078125,0.0040283203125,1.984732824427481,0.1221374045801526,-0.3893129770992366
1646443361468.3452,-0.115966796875,-0.00799560546875,0.015625,2.786259541984733,0.2824427480916031,-0.4580152671755725
1646443361485.8225,-0.12689208984375,-0.00885009765625,-0.0030517578125,2.442748091603053,0.3893129770992366,-0.3587786259541984
1646443361503.3164,-0.1226806640625,-0.00775146484375,0.00823974609375,1.8931297709923665,0.2900763358778626,-0.3969465648854962
1646443361520.972,-0.1219482421875,-0.006103515625,0.00140380859375,2.198473282442748,0.0763358778625954,-0.4045801526717557
1646443361538.3164,-0.124267578125,-0.00518798828125,0.00653076171875,3.15267175572519,0.648854961832061,-0.3969465648854962
1646443361555.1675,-0.1234130859375,-0.00555419921875,-0.0074462890625,3.099236641221374,0.4580152671755725,-0.4122137404580153
1646443361571.8977,-0.115966796875,-0.00701904296875,-0.0018310546875,3.106870229007633,0.4122137404580153,-0.3969465648854962
1646443361588.7302,-0.130615234375,-0.005126953125,-0.00958251953125,3.969465648854962,0.900763358778626,-0.465648854961832
1646443361605.4592,-0.1328125,-0.01177978515625,0.00677490234375,2.213740458015267,-0.2366412213740458,-0.4885496183206106
1646443361622.3208,-0.12164306640625,-0.0078125,0.00970458984375,3.198473282442748,0.2061068702290076,-0.5114503816793893
1646443361639.4424,-0.12921142578125,-0.0101318359375,0.0084228515625,2.7557251908396947,0.1374045801526717,-0.3587786259541984
1646443361656.951,-0.1221923828125,-0.00555419921875,-0.0050048828125,2.7022900763358777,0.5801526717557252,-0.4427480916030534
1646443361674.6162,-0.1197509765625,-0.00341796875,-0.02984619140625,2.435114503816794,0.4198473282442748,-0.4503816793893129
1646443361692.1235,-0.12677001953125,-0.014892578125,0.0430908203125,3.2213740458015265,-0.2137404580152671,-0.5114503816793893
1646443361709.853,-0.12335205078125,-0.00927734375,0.01287841796875,2.3969465648854964,0.5190839694656488,-0.4351145038167939
1646443361727.4004,-0.1185302734375,-0.0091552734375,0.0074462890625,1.931297709923664,0.2137404580152671,-0.3587786259541984
1646443361744.9226,-0.11712646484375,-0.00433349609375,-0.016845703125,2.6259541984732824,0.6641221374045801,-0.3740458015267175
1646443361761.6233,-0.12158203125,-0.00775146484375,-0.0023193359375,2.1603053435114505,0.4427480916030534,-0.3969465648854962
1646443361778.3335,-0.12127685546875,-0.00732421875,0.00091552734375,1.816793893129771,0.5190839694656488,-0.3893129770992366
1646443361795.1885,-0.128173828125,-0.00103759765625,-0.03741455078125,1.8396946564885497,0.3893129770992366,-0.4198473282442748
1646443361811.9353,-0.125244140625,-0.011474609375,0.02197265625,1.3129770992366412,0.0916030534351145,-0.4045801526717557
1646443361828.7686,-0.12298583984375,-0.00933837890625,0.00970458984375,1.1908396946564883,0.1755725190839694,-0.4351145038167939
1646443361845.925,-0.11981201171875,-0.00579833984375,-0.0035400390625,1.5725190839694656,0.5877862595419847,-0.3511450381679389
1646443361863.6138,-0.12335205078125,-0.00811767578125,0.00921630859375,1.5419847328244274,0.2671755725190839,-0.3816793893129771
1646443361881.1448,-0.1199951171875,-0.0087890625,0.00897216796875,1.7938931297709924,0.6564885496183206,-0.3282442748091603
1646443361898.8423,-0.120849609375,-0.00897216796875,0.0125732421875,1.763358778625954,0.3053435114503817,-0.4122137404580153
1646443361916.3416,-0.11883544921875,-0.01080322265625,0.01715087890625,1.618320610687023,0.3129770992366412,-0.3816793893129771
1646443361933.8215,-0.11871337890625,-0.01055908203125,0.0277099609375,2.2519083969465647,0.0916030534351145,-0.4198473282442748
1646443361951.0332,-0.1207275390625,-0.009033203125,0.0025634765625,1.6106870229007633,0.1068702290076335,-0.3740458015267175
1646443361967.7588,-0.12158203125,-0.00860595703125,0.01220703125,1.5572519083969465,0.3893129770992366,-0.3740458015267175
1646443361984.6404,-0.12322998046875,-0.00762939453125,0.00128173828125,1.4732824427480915,0.1908396946564885,-0.3969465648854962
1646443362001.3674,-0.1185302734375,-0.00762939453125,0.01641845703125,2.030534351145038,0.0381679389312977,-0.4122137404580153
1646443362018.194,-0.12353515625,-0.0103759765625,0.0140380859375,1.9694656488549616,0.2137404580152671,-0.4198473282442748
1646443362034.9165,-0.12060546875,-0.00677490234375,0.00347900390625,2.3053435114503817,0.4351145038167939,-0.3511450381679389
1646443362052.2449,-0.1197509765625,-0.00396728515625,-0.00384521484375,2.6106870229007635,0.3129770992366412,-0.4961832061068702
1646443362070.0176,-0.12371826171875,-0.011962890625,0.0167236328125,2.549618320610687,-0.0610687022900763,-0.4580152671755725
1646443362087.515,-0.122314453125,-0.00738525390625,-0.01080322265625,2.236641221374046,0.4809160305343511,-0.3816793893129771
1646443362105.2207,-0.120361328125,-0.01025390625,0.0089111328125,2.137404580152672,0.3893129770992366,-0.3893129770992366
1646443362122.6648,-0.12298583984375,-0.0106201171875,0.01739501953125,2.4885496183206106,0.5419847328244275,-0.3435114503816794
1646443362140.9812,-0.1229248046875,-0.0078125,0.00604248046875,2.740458015267176,0.4732824427480916,-0.3587786259541984
1646443362157.7036,-0.11962890625,-0.007080078125,-0.00042724609375,2.732824427480916,0.4427480916030534,-0.4122137404580153
1646443362174.4,-0.1224365234375,-0.006103515625,-0.00946044921875,2.7557251908396947,0.3587786259541984,-0.4274809160305343
1646443362191.3032,-0.1201171875,-0.00885009765625,0.0037841796875,2.4656488549618323,0.1603053435114503,-0.4198473282442748
1646443362207.9868,-0.12115478515625,-0.0096435546875,0.00494384765625,2.549618320610687,0.3129770992366412,-0.4198473282442748
1646443362226.7698,-0.121826171875,-0.009033203125,0.01995849609375,2.7709923664122136,0.2366412213740458,-0.3969465648854962
1646443362243.591,-0.12518310546875,-0.007080078125,0.00390625,2.862595419847328,0.2748091603053435,-0.4122137404580153
1646443362261.3103,-0.1207275390625,-0.0054931640625,0.00201416015625,2.7022900763358777,0.0839694656488549,-0.4351145038167939
1646443362278.7866,-0.123046875,-0.00830078125,0.010986328125,2.5572519083969465,0.1526717557251908,-0.4427480916030534
1646443362296.4749,-0.122314453125,-0.008056640625,0.020263671875,2.763358778625954,-0.0763358778625954,-0.4732824427480916
1646443362313.9573,-0.1187744140625,-0.00738525390625,0.0111083984375,2.931297709923664,0.6412213740458015,-0.4351145038167939
1646443362331.4304,-0.12060546875,-0.00750732421875,0.0032958984375,2.801526717557252,0.0839694656488549,-0.4351145038167939
1646443362348.9355,-0.11932373046875,-0.00811767578125,0.0087890625,2.549618320610687,0.4503816793893129,-0.3816793893129771
1646443362365.6255,-0.1207275390625,-0.0123291015625,0.02801513671875,2.404580152671756,0.3587786259541984,-0.3740458015267175
1646443362382.4807,-0.12017822265625,-0.0096435546875,0.01336669921875,2.8473282442748094,0.4961832061068702,-0.3893129770992366
1646443362399.1592,-0.122314453125,-0.00927734375,0.00946044921875,2.9083969465648853,0.0305343511450381,-0.465648854961832
1646443362416.048,-0.12255859375,-0.0087890625,0.0098876953125,2.66412213740458,0.2519083969465648,-0.4045801526717557
1646443362432.7444,-0.12054443359375,-0.007568359375,0.0062255859375,2.7557251908396947,0.3587786259541984,-0.4122137404580153
1646443362449.862,-0.11968994140625,-0.00994873046875,0.01202392578125,3.3587786259541983,0.648854961832061,-0.4351145038167939
1646443362467.5942,-0.121826171875,-0.00738525390625,-0.00653076171875,2.49618320610687,0.1450381679389313,-0.4732824427480916
1646443362485.0835,-0.12286376953125,-0.00830078125,0.0037841796875,2.312977099236641,0.2061068702290076,-0.4427480916030534
1646443362502.7532,-0.12445068359375,-0.01025390625,0.0029296875,2.473282442748092,0.1374045801526717,-0.4580152671755725
1646443362520.2244,-0.12322998046875,-0.00836181640625,-0.01043701171875,2.236641221374046,0.8091603053435115,-0.3740458015267175
1646443362537.887,-0.123779296875,-0.01104736328125,0.0062255859375,1.236641221374046,0.1145038167938931,-0.4274809160305343
1646443362554.9749,-0.12188720703125,-0.015380859375,0.02166748046875,0.4122137404580153,-0.2366412213740458,-0.4274809160305343
1646443362571.8489,-0.12115478515625,-0.0093994140625,0.005859375,0.7633587786259542,0.3129770992366412,-0.3893129770992366
1646443362588.5315,-0.12017822265625,-0.00830078125,0.0079345703125,0.7404580152671756,0.2519083969465648,-0.3893129770992366
1646443362605.1975,-0.1212158203125,-0.0074462890625,0.01483154296875,0.8549618320610687,0.1221374045801526,-0.3816793893129771
1646443362622.0244,-0.1219482421875,-0.00372314453125,0.0006103515625,1.4122137404580153,0.6335877862595419,-0.3435114503816794
1646443362638.7087,-0.1220703125,-0.0081787109375,0.02117919921875,1.6030534351145038,0.1374045801526717,-0.4427480916030534
1646443362656.4585,-0.12139892578125,-0.008544921875,0.0167236328125,1.8549618320610688,0.1908396946564885,-0.4198473282442748
1646443362673.9575,-0.1182861328125,-0.0076904296875,0.0091552734375,2.2748091603053435,0.366412213740458,-0.4045801526717557
1646443362691.6045,-0.12261962890625,-0.008056640625,0.0130615234375,2.122137404580153,0.015267175572519,-0.4351145038167939
1646443362709.083,-0.1199951171875,-0.011474609375,0.0157470703125,2.7480916030534357,0.5343511450381679,-0.4122137404580153
1646443362726.5696,-0.1229248046875,-0.0108642578125,0.0079345703125,1.6870229007633588,0.4503816793893129,-0.366412213740458
1646443362744.4612,-0.1190185546875,-0.0118408203125,0.03125,2.0610687022900764,-0.3282442748091603,-0.4732824427480916
1646443362761.1345,-0.1199951171875,-0.01104736328125,0.02362060546875,2.801526717557252,0.4961832061068702,-0.4122137404580153
1646443362778.0437,-0.12127685546875,-0.0087890625,0.008056640625,2.053435114503817,0.2977099236641221,-0.4122137404580153
1646443362794.7737,-0.11785888671875,-0.00933837890625,0.0125732421875,1.984732824427481,0.2061068702290076,-0.4045801526717557
1646443362811.6228,-0.1185302734375,-0.0084228515625,0.0081787109375,1.8244274809160304,-0.1450381679389313,-0.4351145038167939
1646443362828.338,-0.1241455078125,-0.00897216796875,0.005859375,3.0839694656488548,0.6641221374045801,-0.4198473282442748
1646443362845.5488,-0.12152099609375,-0.0106201171875,0.0057373046875,2.0763358778625958,0.099236641221374,-0.3969465648854962
1646443362863.11,-0.12213134765625,-0.00946044921875,0.00164794921875,2.15267175572519,0.4045801526717557,-0.4427480916030534
1646443362880.6536,-0.125244140625,-0.01141357421875,0.00885009765625,2.0610687022900764,0.4885496183206106,-0.3740458015267175
1646443362898.3306,-0.12744140625,-0.01007080078125,0.0072021484375,2.0916030534351147,0.4580152671755725,-0.366412213740458
1646443362915.8098,-0.1273193359375,-0.00677490234375,0.0059814453125,1.6259541984732824,0.5038167938931297,-0.366412213740458
1646443362933.454,-0.1192626953125,-0.00299072265625,-0.0128173828125,1.8931297709923665,0.5648854961832062,-0.3816793893129771
1646443362950.5813,-0.11993408203125,-0.00543212890625,0.0048828125,2.931297709923664,0.7633587786259542,-0.4122137404580153
1646443362967.456,-0.12005615234375,-0.0067138671875,0.001220703125,2.595419847328244,0.4503816793893129,-0.4122137404580153
1646443362984.2017,-0.122802734375,-0.011474609375,0.0137939453125,2.473282442748092,0.0076335877862595,-0.4427480916030534
1646443363000.8928,-0.11492919921875,-0.00726318359375,0.01806640625,3.801526717557252,0.5114503816793893,-0.4580152671755725
1646443363017.7578,-0.119384765625,-0.0087890625,0.01007080078125,3.2290076335877864,0.1755725190839694,-0.4809160305343511
1646443363034.4636,-0.119873046875,-0.00823974609375,0.00848388671875,3.282442748091603,0.3435114503816794,-0.4580152671755725
1646443363052.0227,-0.1219482421875,-0.01190185546875,0.01751708984375,2.6717557251908395,0.2137404580152671,-0.3129770992366412
1646443363069.5146,-0.12274169921875,-0.0086669921875,-0.0076904296875,2.801526717557252,0.3893129770992366,-0.4274809160305343
1646443363087.1665,-0.119140625,-0.01031494140625,0.01104736328125,2.3206106870229006,0.183206106870229,-0.3816793893129771
1646443363104.6702,-0.119384765625,-0.00933837890625,0.00738525390625,2.6259541984732824,0.5572519083969466,-0.366412213740458
1646443363122.2937,-0.12200927734375,-0.0103759765625,0.0184326171875,2.33587786259542,0.2366412213740458,-0.4122137404580153
1646443363140.1963,-0.1180419921875,-0.01214599609375,0.01861572265625,2.2748091603053435,0.183206106870229,-0.3816793893129771
1646443363157.3232,-0.12078857421875,-0.008544921875,0.01531982421875,2.9083969465648853,0.4351145038167939,-0.4122137404580153
1646443363174.2393,-0.1217041015625,-0.00762939453125,-0.00372314453125,2.7938931297709924,0.4122137404580153,-0.4122137404580153
1646443363190.9165,-0.121826171875,-0.0103759765625,0.00689697265625,2.9236641221374047,0.2824427480916031,-0.4580152671755725
1646443363207.7942,-0.1219482421875,-0.00787353515625,-0.00537109375,2.916030534351145,0.2748091603053435,-0.4274809160305343
1646443363226.2168,-0.12176513671875,-0.00958251953125,0.00445556640625,2.099236641221374,0.366412213740458,-0.4198473282442748
1646443363247.2751,-0.12005615234375,-0.00738525390625,0.01324462890625,1.954198473282443,0.015267175572519,-0.3893129770992366
1646443363264.7002,-0.1195068359375,-0.00811767578125,0.01788330078125,1.8549618320610688,0.0076335877862595,-0.4122137404580153
1646443363282.19,-0.12420654296875,-0.01348876953125,0.0255126953125,1.4885496183206106,-0.0839694656488549,-0.3587786259541984
1646443363299.9497,-0.12255859375,-0.0113525390625,0.02081298828125,1.763358778625954,0.2595419847328244,-0.4045801526717557
1646443363317.4705,-0.12139892578125,-0.0057373046875,0.0035400390625,1.6564885496183206,0.1679389312977099,-0.4122137404580153
1646443363335.147,-0.1220703125,-0.00592041015625,0.0120849609375,1.8396946564885497,0.1755725190839694,-0.3893129770992366
1646443363352.5696,-0.11944580078125,-0.00445556640625,-0.01092529296875,2.2748091603053435,0.0610687022900763,-0.4427480916030534
1646443363369.4468,-0.122314453125,-0.00946044921875,0.0040283203125,2.5572519083969465,0.1068702290076335,-0.4732824427480916
1646443363386.191,-0.120849609375,-0.01055908203125,0.0086669921875,2.2519083969465647,0.183206106870229,-0.4503816793893129
1646443363402.923,-0.119384765625,-0.01043701171875,0.0035400390625,1.8778625954198476,0.0076335877862595,-0.4809160305343511
1646443363419.752,-0.1217041015625,-0.0091552734375,0.00665283203125,2.282442748091603,0.5572519083969466,-0.366412213740458
1646443363436.4246,-0.120361328125,-0.005615234375,0.0050048828125,2.633587786259542,0.465648854961832,-0.465648854961832
1646443363453.8164,-0.12054443359375,-0.00927734375,0.02734375,2.801526717557252,0.3282442748091603,-0.4122137404580153
1646443363471.296,-0.12017822265625,-0.0086669921875,0.0057373046875,2.977099236641221,0.5267175572519084,-0.465648854961832
1646443363488.953,-0.123779296875,-0.0091552734375,-0.00372314453125,3.1603053435114505,0.6717557251908397,-0.4045801526717557
1646443363506.4287,-0.1214599609375,-0.0108642578125,0.012451171875,2.50381679389313,0.366412213740458,-0.4503816793893129
1646443363523.889,-0.1207275390625,-0.00701904296875,0.009765625,2.66412213740458,0.1145038167938931,-0.4274809160305343
1646443363541.4966,-0.12274169921875,-0.0096435546875,0.0048828125,1.9770992366412212,0.0839694656488549,-0.4427480916030534
1646443363558.6863,-0.12359619140625,-0.0107421875,0.01116943359375,1.7557251908396947,0.2519083969465648,-0.4198473282442748
1646443363575.534,-0.1204833984375,-0.0089111328125,0.01129150390625,1.847328244274809,0.4580152671755725,-0.3893129770992366
1646443363592.2249,-0.1212158203125,-0.00750732421875,-0.01025390625,1.4580152671755726,0.2442748091603053,-0.3740458015267175
1646443363609.1045,-0.12237548828125,-0.0087890625,0.00726318359375,1.0381679389312977,0.3435114503816794,-0.3893129770992366
1646443363625.7866,-0.1224365234375,-0.01025390625,0.01190185546875,0.931297709923664,0.465648854961832,-0.4045801526717557
1646443363642.6724,-0.1195068359375,-0.00897216796875,0.00640869140625,0.7557251908396947,0.0839694656488549,-0.3587786259541984
1646443363660.1162,-0.1212158203125,-0.0078125,0.00653076171875,1.0534351145038168,0.2671755725190839,-0.3969465648854962
1646443363677.6118,-0.12158203125,-0.00738525390625,0.0140380859375,1.297709923664122,-0.099236641221374,-0.4274809160305343
1646443363695.2869,-0.122802734375,-0.01031494140625,0.01531982421875,1.1145038167938932,-0.2671755725190839,-0.4351145038167939
1646443363712.7854,-0.11944580078125,-0.00848388671875,0.0025634765625,1.847328244274809,0.2137404580152671,-0.4198473282442748
1646443363730.4324,-0.1212158203125,-0.00482177734375,-0.00140380859375,1.7557251908396947,0.2824427480916031,-0.4045801526717557
1646443363747.9736,-0.12506103515625,-0.01043701171875,0.025390625,1.366412213740458,-0.4503816793893129,-0.4427480916030534
1646443363764.942,-0.12371826171875,-0.00604248046875,-0.01068115234375,1.954198473282443,0.2900763358778626,-0.4198473282442748
1646443363781.6196,-0.119873046875,-0.01043701171875,0.0084228515625,1.3969465648854962,0.4503816793893129,-0.3969465648854962
1646443363798.3335,-0.123046875,-0.00787353515625,0.01104736328125,1.2061068702290076,-0.0916030534351145,-0.4274809160305343
1646443363815.1729,-0.121826171875,-0.00860595703125,0.0120849609375,1.9083969465648856,0.183206106870229,-0.4274809160305343
1646443363831.8845,-0.12249755859375,-0.010009765625,0.02093505859375,1.7786259541984732,-0.1145038167938931,-0.4274809160305343
1646443363848.713,-0.126220703125,-0.00384521484375,-0.0086669921875,2.1297709923664123,0.0916030534351145,-0.4274809160305343
1646443363866.2043,-0.123046875,-0.00885009765625,0.0123291015625,2.6717557251908395,0.3740458015267175,-0.4274809160305343
1646443363883.9172,-0.12139892578125,-0.0081787109375,0.0035400390625,3.0381679389312977,0.8549618320610687,-0.3893129770992366
1646443363901.4475,-0.11871337890625,-0.01116943359375,0.012451171875,2.015267175572519,0.3816793893129771,-0.4122137404580153
1646443363918.9363,-0.1212158203125,-0.00885009765625,0.0030517578125,2.786259541984733,0.3435114503816794,-0.4274809160305343
1646443363936.5825,-0.12042236328125,-0.01263427734375,0.01922607421875,2.8931297709923665,0.4045801526717557,-0.4274809160305343
1646443363954.2026,-0.11962890625,-0.0106201171875,0.0208740234375,2.648854961832061,0.0763358778625954,-0.4427480916030534
1646443363971.0796,-0.12158203125,-0.0054931640625,-0.0093994140625,2.6793893129771,0.9465648854961832,-0.3969465648854962
1646443363987.8015,-0.12139892578125,-0.00518798828125,-0.01495361328125,2.916030534351145,0.5877862595419847,-0.4274809160305343
1646443364004.6543,-0.12432861328125,-0.01007080078125,0.0225830078125,2.381679389312977,0.0381679389312977,-0.4045801526717557
1646443364021.378,-0.1273193359375,-0.006103515625,0.01617431640625,2.4580152671755724,0.0458015267175572,-0.4580152671755725
1646443364038.1975,-0.12158203125,-0.00531005859375,0.0191650390625,3.862595419847328,1.0381679389312977,-0.4351145038167939
1646443364055.319,-0.12066650390625,-0.007568359375,0.0103759765625,2.931297709923664,0.0229007633587786,-0.4122137404580153
1646443364072.8247,-0.1209716796875,-0.00872802734375,0.00244140625,3.732824427480916,0.366412213740458,-0.465648854961832
1646443364090.567,-0.1181640625,-0.00885009765625,0.01275634765625,4.648854961832061,0.7099236641221374,-0.4274809160305343
1646443364108.1138,-0.12237548828125,-0.014404296875,0.0347900390625,4.152671755725191,0.1068702290076335,-0.4885496183206106
1646443364125.791,-0.11956787109375,-0.00750732421875,0.0010986328125,3.687022900763359,0.1526717557251908,-0.4580152671755725
1646443364143.736,-0.1219482421875,-0.0123291015625,0.01910400390625,3.541984732824428,0.4274809160305343,-0.4732824427480916
1646443364161.0596,-0.12127685546875,-0.011474609375,0.01361083984375,3.564885496183206,0.5038167938931297,-0.4351145038167939
1646443364177.8213,-0.11712646484375,-0.0037841796875,-0.014892578125,4.091603053435114,0.8015267175572519,-0.4351145038167939
1646443364194.504,-0.123779296875,-0.0125732421875,0.009033203125,3.83206106870229,0.1450381679389313,-0.4885496183206106
1646443364211.3623,-0.12255859375,-0.00921630859375,0.007080078125,3.404580152671756,-0.2748091603053435,-0.5419847328244275
1646443364229.6997,-0.1209716796875,-0.00885009765625,-0.004150390625,3.870229007633588,0.4580152671755725,-0.465648854961832
1646443364246.601,-0.12054443359375,-0.00762939453125,-0.00347900390625,3.687022900763359,1.0381679389312977,-0.4351145038167939
1646443364263.7886,-0.12091064453125,-0.01068115234375,0.01531982421875,3.3587786259541983,0.3435114503816794,-0.4274809160305343
1646443364281.4907,-0.12359619140625,-0.00836181640625,0.0032958984375,3.3435114503816794,0.3511450381679389,-0.4122137404580153
1646443364298.9868,-0.12158203125,-0.00872802734375,0.00457763671875,3.2519083969465647,0.7862595419847328,-0.4351145038167939
1646443364316.6533,-0.1209716796875,-0.00823974609375,-0.00634765625,3.2290076335877864,0.5419847328244275,-0.4351145038167939
1646443364334.1277,-0.1214599609375,-0.01446533203125,0.0338134765625,2.4885496183206106,0.5190839694656488,-0.4122137404580153
1646443364351.6177,-0.1170654296875,-0.00897216796875,0.00897216796875,2.9618320610687023,0.3358778625954198,-0.4503816793893129
1646443364368.739,-0.120361328125,-0.00994873046875,0.0179443359375,2.5114503816793894,0.0610687022900763,-0.4351145038167939
1646443364385.5422,-0.121337890625,-0.0101318359375,0.01025390625,3.183206106870229,0.4580152671755725,-0.4198473282442748
1646443364402.3904,-0.1201171875,-0.00823974609375,0.0076904296875,2.7022900763358777,0.1145038167938931,-0.465648854961832
1646443364419.087,-0.1195068359375,-0.01129150390625,0.00341796875,2.3969465648854964,0.1526717557251908,-0.4122137404580153
1646443364435.9126,-0.126708984375,-0.01507568359375,0.0306396484375,2.6412213740458017,-0.0610687022900763,-0.4122137404580153
1646443364452.6082,-0.12408447265625,-0.00933837890625,0.01202392578125,2.15267175572519,-0.3816793893129771,-0.4274809160305343
1646443364470.035,-0.1221923828125,-0.00897216796875,0.00604248046875,2.595419847328244,0.648854961832061,-0.3740458015267175
1646443364487.7417,-0.11883544921875,-0.010009765625,0.01690673828125,2.236641221374046,0.465648854961832,-0.3969465648854962
1646443364505.224,-0.12176513671875,-0.00982666015625,-0.0001220703125,2.16793893129771,0.1755725190839694,-0.4122137404580153
1646443364522.9104,-0.119140625,-0.00982666015625,0.01629638671875,1.923664122137405,0.2900763358778626,-0.3587786259541984
1646443364540.432,-0.1241455078125,-0.008056640625,0.0,1.862595419847328,0.3358778625954198,-0.4503816793893129
1646443364558.1655,-0.119140625,-0.00775146484375,-0.00616455078125,1.732824427480916,0.2595419847328244,-0.4351145038167939
1646443364574.9092,-0.1209716796875,-0.00970458984375,0.007568359375,1.847328244274809,0.2595419847328244,-0.4351145038167939
1646443364591.785,-0.12164306640625,-0.0078125,0.01141357421875,1.870229007633588,0.2900763358778626,-0.4045801526717557
1646443364608.4775,-0.1204833984375,-0.0069580078125,0.00384521484375,1.938931297709924,0.3893129770992366,-0.4427480916030534
1646443364625.1409,-0.12371826171875,-0.00994873046875,0.00872802734375,2.183206106870229,0.366412213740458,-0.4198473282442748
1646443364642.0276,-0.12176513671875,-0.0050048828125,-0.0068359375,2.16793893129771,0.5801526717557252,-0.3816793893129771
1646443364658.8796,-0.12176513671875,-0.00616455078125,0.00787353515625,2.0381679389312977,0.3969465648854962,-0.4427480916030534
1646443364676.539,-0.12359619140625,-0.00848388671875,0.00250244140625,2.7251908396946565,0.3893129770992366,-0.4274809160305343
1646443364694.0276,-0.12249755859375,-0.009521484375,0.0050048828125,2.816793893129771,0.3816793893129771,-0.4427480916030534
1646443364711.738,-0.120361328125,-0.0084228515625,0.007568359375,3.0076335877862594,0.1755725190839694,-0.4580152671755725
1646443364729.2607,-0.1219482421875,-0.00982666015625,0.01287841796875,3.786259541984733,0.5190839694656488,-0.4580152671755725
1646443364746.8074,-0.1219482421875,-0.0103759765625,0.03826904296875,4.061068702290076,0.5877862595419847,-0.4732824427480916
1646443364764.3022,-0.12310791015625,-0.00067138671875,-0.01824951171875,4.580152671755725,0.9389312977099236,-0.4503816793893129
1646443364780.9983,-0.1229248046875,-0.01025390625,0.021728515625,4.358778625954199,0.2366412213740458,-0.4503816793893129
1646443364797.8616,-0.1199951171875,-0.0067138671875,-0.00244140625,3.67175572519084,0.7022900763358778,-0.4580152671755725
1646443364814.542,-0.1219482421875,-0.00885009765625,0.01483154296875,3.66412213740458,0.1679389312977099,-0.4198473282442748
1646443364831.401,-0.12091064453125,-0.009521484375,0.0250244140625,4.251908396946565,0.2824427480916031,-0.5114503816793893
1646443364848.0708,-0.12139892578125,-0.00811767578125,0.00830078125,4.541984732824427,0.9847328244274808,-0.4427480916030534
1646443364865.148,-0.115966796875,-0.01214599609375,0.0325927734375,4.8320610687022905,0.4122137404580153,-0.4885496183206106
1646443364882.8264,-0.12493896484375,-0.011962890625,0.009033203125,4.862595419847328,0.2977099236641221,-0.4427480916030534
1646443364900.3003,-0.1214599609375,-0.00555419921875,-0.011474609375,5.343511450381679,0.8015267175572519,-0.4198473282442748
1646443364917.9707,-0.11944580078125,-0.01116943359375,0.0159912109375,5.679389312977099,0.5114503816793893,-0.4809160305343511
1646443364935.49,-0.12286376953125,-0.014892578125,0.02423095703125,5.221374045801527,0.5801526717557252,-0.4274809160305343
1646443364953.1465,-0.12261962890625,-0.013671875,0.02886962890625,4.458015267175573,0.4122137404580153,-0.4732824427480916
1646443364970.2454,-0.1224365234375,-0.01092529296875,0.00274658203125,4.5038167938931295,0.3358778625954198,-0.4427480916030534
1646443364986.9355,-0.12652587890625,-0.0120849609375,0.01239013671875,4.190839694656488,0.2366412213740458,-0.5190839694656488
1646443365003.827,-0.1202392578125,-0.0084228515625,-0.02099609375,3.2900763358778624,0.4503816793893129,-0.4045801526717557
1646443365020.5007,-0.12091064453125,-0.0072021484375,-0.003662109375,3.8091603053435112,0.7938931297709924,-0.4809160305343511
1646443365037.4624,-0.1182861328125,-0.011474609375,0.00689697265625,3.793893129770992,0.5267175572519084,-0.4580152671755725
1646443365054.1904,-0.11767578125,-0.01483154296875,0.01055908203125,3.5267175572519083,0.8473282442748091,-0.4045801526717557
1646443365071.7405,-0.12225341796875,-0.0118408203125,0.01629638671875,3.7786259541984735,0.465648854961832,-0.4351145038167939
1646443365089.2344,-0.122314453125,-0.008544921875,-0.0054931640625,4.526717557251908,1.083969465648855,-0.4198473282442748
1646443365106.964,-0.11871337890625,-0.0096435546875,0.01171875,3.946564885496183,0.3129770992366412,-0.4503816793893129
1646443365124.4612,-0.121826171875,-0.0091552734375,0.0167236328125,2.648854961832061,0.0687022900763358,-0.4427480916030534
1646443365141.9844,-0.1199951171875,-0.0091552734375,-0.0028076171875,3.7786259541984735,0.4122137404580153,-0.4427480916030534
1646443365159.6626,-0.120849609375,-0.00823974609375,-0.00811767578125,3.015267175572519,0.4427480916030534,-0.4351145038167939
1646443365176.388,-0.1195068359375,-0.01434326171875,0.031494140625,2.5801526717557253,0.3435114503816794,-0.4427480916030534
1646443365193.3777,-0.11920166015625,-0.01068115234375,0.00762939453125,2.5877862595419847,0.6183206106870229,-0.4274809160305343
1646443365210.097,-0.12347412109375,-0.01007080078125,0.0030517578125,3.206106870229008,0.7175572519083969,-0.4427480916030534
1646443365228.6953,-0.12060546875,-0.00885009765625,-0.0191650390625,1.7099236641221374,0.6259541984732825,-0.4122137404580153
1646443365245.39,-0.12677001953125,-0.012451171875,0.02203369140625,1.3053435114503815,-0.9465648854961832,-0.4961832061068702
1646443365262.2012,-0.12139892578125,-0.01031494140625,0.00799560546875,1.3740458015267176,0.3129770992366412,-0.3282442748091603
1646443365279.9512,-0.12152099609375,-0.005126953125,-0.013671875,2.122137404580153,0.6793893129770993,-0.4122137404580153
1646443365297.506,-0.12091064453125,-0.01025390625,0.0103759765625,1.5114503816793894,0.3893129770992366,-0.3816793893129771
1646443365315.1953,-0.12109375,-0.0089111328125,0.00640869140625,1.1755725190839694,-0.0305343511450381,-0.4045801526717557
1646443365332.687,-0.12188720703125,-0.00701904296875,-0.013916015625,1.5801526717557253,0.7175572519083969,-0.3435114503816794
1646443365350.371,-0.12030029296875,-0.01141357421875,0.01959228515625,1.847328244274809,0.3206106870229007,-0.4503816793893129
1646443365367.7651,-0.123046875,-0.00982666015625,0.01251220703125,1.1068702290076335,0.4198473282442748,-0.3740458015267175
1646443365384.6228,-0.121826171875,-0.0074462890625,-0.0086669921875,1.4045801526717556,0.2366412213740458,-0.3816793893129771
1646443365401.394,-0.1209716796875,-0.0106201171875,0.01727294921875,1.4198473282442747,-0.0229007633587786,-0.3969465648854962
1646443365418.1045,-0.1204833984375,-0.0087890625,-0.00323486328125,1.5267175572519085,0.3587786259541984,-0.3969465648854962
1646443365434.9836,-0.11773681640625,-0.00726318359375,0.00506591796875,1.4961832061068705,0.1984732824427481,-0.4274809160305343
1646443365451.6538,-0.1221923828125,-0.00836181640625,6.103515625e-05,1.3587786259541983,0.015267175572519,-0.4351145038167939
1646443365469.0571,-0.12225341796875,-0.0091552734375,0.00140380859375,1.236641221374046,0.0687022900763358,-0.3969465648854962
1646443365486.5488,-0.12127685546875,-0.0101318359375,0.005126953125,1.3282442748091603,0.3893129770992366,-0.3816793893129771
1646443365504.221,-0.12030029296875,-0.009765625,-0.0015869140625,1.213740458015267,0.2442748091603053,-0.366412213740458
1646443365521.77,-0.12060546875,-0.01104736328125,-0.0013427734375,1.2900763358778626,0.3969465648854962,-0.366412213740458
1646443365539.281,-0.11932373046875,-0.0048828125,-0.0028076171875,0.9389312977099236,0.4351145038167939,-0.4198473282442748
1646443365556.9866,-0.1209716796875,-0.010009765625,0.01129150390625,0.5343511450381679,0.0381679389312977,-0.3740458015267175
1646443365574.1235,-0.12176513671875,-0.0089111328125,0.01104736328125,0.4732824427480916,0.3511450381679389,-0.4045801526717557
1646443365590.966,-0.12115478515625,-0.00830078125,0.01025390625,0.3740458015267175,0.3129770992366412,-0.3435114503816794
1646443365607.6875,-0.12103271484375,-0.01043701171875,0.00689697265625,0.5038167938931297,0.3206106870229007,-0.3511450381679389
1646443365624.5645,-0.12188720703125,-0.00885009765625,0.009033203125,-0.015267175572519,0.3435114503816794,-0.3282442748091603
1646443365641.308,-0.12091064453125,-0.00933837890625,0.01043701171875,-0.5343511450381679,0.1068702290076335,-0.3969465648854962
1646443365658.1667,-0.121826171875,-0.0096435546875,0.009033203125,-0.6183206106870229,0.2137404580152671,-0.366412213740458
1646443365675.5532,-0.12109375,-0.00848388671875,0.00885009765625,-0.6259541984732825,0.1297709923664122,-0.3816793893129771
1646443365693.147,-0.12200927734375,-0.00970458984375,0.00799560546875,-0.6106870229007634,0.1526717557251908,-0.3511450381679389
1646443365710.8845,-0.12115478515625,-0.00885009765625,0.0087890625,-0.5801526717557252,0.1603053435114503,-0.366412213740458
1646443365728.392,-0.12091064453125,-0.009521484375,0.00848388671875,-0.6412213740458015,0.099236641221374,-0.366412213740458
1646443365746.1265,-0.12164306640625,-0.0103759765625,0.052734375,0.8396946564885496,1.2442748091603053,-0.3587786259541984
1646443365763.879,-0.11981201171875,-0.00115966796875,-0.00494384765625,2.312977099236641,1.236641221374046,-0.2366412213740458
1646443365780.7473,-0.12188720703125,-0.0113525390625,0.01483154296875,2.541984732824428,0.6412213740458015,-0.3740458015267175
1646443365797.4475,-0.12115478515625,-0.00982666015625,0.00555419921875,2.66412213740458,-0.0534351145038167,-0.3969465648854962
1646443365814.1904,-0.11981201171875,-0.01080322265625,0.025390625,2.854961832061069,0.648854961832061,-0.4503816793893129
1646443365831.0198,-0.11822509765625,-0.00506591796875,-0.01763916015625,3.6793893129770994,0.8549618320610687,-0.4198473282442748
1646443365847.747,-0.11676025390625,-0.0098876953125,0.01171875,2.8473282442748094,0.6183206106870229,-0.4198473282442748
1646443365864.8691,-0.121826171875,-0.0108642578125,0.020751953125,2.5267175572519083,0.1526717557251908,-0.3893129770992366
1646443365882.4514,-0.1217041015625,-0.0108642578125,-0.00244140625,2.786259541984733,0.2442748091603053,-0.3816793893129771
1646443365900.143,-0.118408203125,-0.01177978515625,0.00421142578125,2.900763358778626,0.900763358778626,-0.3816793893129771
1646443365917.6614,-0.12384033203125,-0.01373291015625,0.0191650390625,2.648854961832061,0.2671755725190839,-0.4351145038167939
1646443365935.1448,-0.1221923828125,-0.01123046875,0.011474609375,3.312977099236641,0.816793893129771,-0.3893129770992366
1646443365952.8235,-0.12347412109375,-0.01324462890625,0.02752685546875,2.7938931297709924,0.3969465648854962,-0.4198473282442748
1646443365970.242,-0.11895751953125,-0.00958251953125,-0.0003662109375,2.732824427480916,0.5419847328244275,-0.4045801526717557
1646443365987.1182,-0.12091064453125,-0.01007080078125,0.01800537109375,3.4580152671755724,0.7175572519083969,-0.4045801526717557
1646443366003.808,-0.12396240234375,-0.00994873046875,0.00634765625,2.732824427480916,0.0381679389312977,-0.4045801526717557
1646443366020.631,-0.1199951171875,-0.0113525390625,0.0111083984375,2.717557251908397,0.2213740458015267,-0.4503816793893129
1646443366037.3389,-0.12109375,-0.01025390625,0.0076904296875,3.236641221374046,1.0,-0.4122137404580153
1646443366054.1218,-0.1239013671875,-0.011474609375,0.008544921875,3.427480916030534,0.4732824427480916,-0.4045801526717557
1646443366071.3755,-0.1214599609375,-0.01177978515625,0.0107421875,3.3282442748091605,0.5267175572519084,-0.3435114503816794
1646443366088.864,-0.12518310546875,-0.0113525390625,0.01220703125,3.16793893129771,0.3893129770992366,-0.3969465648854962
1646443366106.5105,-0.12200927734375,-0.01019287109375,0.0089111328125,3.801526717557252,0.549618320610687,-0.3740458015267175
1646443366123.9592,-0.11944580078125,-0.009765625,0.00604248046875,3.6793893129770994,0.4580152671755725,-0.3969465648854962
1646443366142.0432,-0.1180419921875,-0.0079345703125,-0.000732421875,3.854961832061069,0.3206106870229007,-0.3740458015267175
1646443366159.5305,-0.1295166015625,-0.011474609375,0.013671875,3.7709923664122136,0.1450381679389313,-0.4351145038167939
1646443366176.708,-0.12127685546875,-0.01287841796875,0.0345458984375,3.4122137404580157,0.2290076335877862,-0.3969465648854962
1646443366193.411,-0.12115478515625,-0.00958251953125,0.00909423828125,3.534351145038168,0.3816793893129771,-0.4427480916030534
1646443366210.1355,-0.12896728515625,-0.0103759765625,0.012939453125,3.3435114503816794,0.465648854961832,-0.3893129770992366
1646443366228.567,-0.1201171875,-0.0101318359375,0.0087890625,3.2595419847328246,0.4274809160305343,-0.3893129770992366
1646443366245.183,-0.12164306640625,-0.00982666015625,0.01727294921875,2.4580152671755724,-0.015267175572519,-0.4198473282442748
1646443366262.1511,-0.11895751953125,-0.007568359375,0.0025634765625,2.4656488549618323,0.3969465648854962,-0.4045801526717557
1646443366279.4556,-0.12066650390625,-0.00927734375,0.00811767578125,1.870229007633588,0.0381679389312977,-0.4122137404580153
1646443366297.1455,-0.12457275390625,-0.00897216796875,0.0047607421875,1.5190839694656488,0.1450381679389313,-0.4198473282442748
1646443366314.64,-0.11962890625,-0.0054931640625,6.103515625e-05,0.9770992366412212,0.2366412213740458,-0.3969465648854962
1646443366332.1487,-0.12164306640625,-0.007568359375,0.00579833984375,0.9389312977099236,0.2671755725190839,-0.366412213740458
1646443366349.8484,-0.12109375,-0.01129150390625,0.0184326171875,1.748091603053435,0.1755725190839694,-0.4045801526717557
1646443366367.5566,-0.12225341796875,-0.0107421875,0.0057373046875,1.8091603053435117,0.3206106870229007,-0.4045801526717557
1646443366384.4468,-0.1202392578125,-0.00665283203125,-0.00762939453125,1.7786259541984732,0.6717557251908397,-0.3587786259541984
1646443366401.1484,-0.1282958984375,-0.00726318359375,0.00494384765625,1.900763358778626,0.3893129770992366,-0.3893129770992366
1646443366418.0125,-0.12139892578125,-0.0076904296875,0.00799560546875,2.137404580152672,0.4961832061068702,-0.3969465648854962
1646443366434.7056,-0.1202392578125,-0.00909423828125,-0.0008544921875,2.633587786259542,0.6335877862595419,-0.3816793893129771
1646443366451.5603,-0.1207275390625,-0.00701904296875,0.0001220703125,1.954198473282443,0.2366412213740458,-0.4045801526717557
1646443366468.3523,-0.12152099609375,-0.01123046875,0.01239013671875,1.83206106870229,0.1068702290076335,-0.4274809160305343
1646443366485.8398,-0.12078857421875,-0.008056640625,0.00714111328125,1.7709923664122138,0.3282442748091603,-0.3740458015267175
1646443366503.5068,-0.1217041015625,-0.0096435546875,0.00933837890625,1.2595419847328244,0.465648854961832,-0.3816793893129771
1646443366520.9895,-0.123779296875,-0.00823974609375,0.00384521484375,1.5190839694656488,0.3969465648854962,-0.366412213740458
1646443366538.703,-0.12139892578125,-0.00921630859375,0.0059814453125,1.3129770992366412,0.4122137404580153,-0.3511450381679389
1646443366556.254,-0.121826171875,-0.00830078125,-0.00439453125,1.2900763358778626,0.1297709923664122,-0.3816793893129771
1646443366573.868,-0.12237548828125,-0.00958251953125,0.0084228515625,1.6946564885496185,0.1908396946564885,-0.3969465648854962
1646443366590.5571,-0.12274169921875,-0.0086669921875,0.00927734375,1.6106870229007633,0.2442748091603053,-0.4198473282442748
1646443366607.276,-0.1221923828125,-0.0096435546875,0.00860595703125,1.6793893129770991,0.4198473282442748,-0.3587786259541984
1646443366624.1409,-0.119384765625,-0.00909423828125,0.005126953125,1.8396946564885497,0.4732824427480916,-0.366412213740458
1646443366640.815,-0.1156005859375,-0.00726318359375,0.00653076171875,2.106870229007633,0.4198473282442748,-0.4122137404580153
1646443366657.631,-0.11944580078125,-0.0078125,-0.00042724609375,2.5572519083969465,0.7862595419847328,-0.3740458015267175
1646443366674.6206,-0.125,-0.0103759765625,0.01123046875,2.6717557251908395,0.1908396946564885,-0.3893129770992366
1646443366692.277,-0.11505126953125,-0.0093994140625,0.0001220703125,3.1297709923664123,0.5114503816793893,-0.366412213740458
1646443366709.809,-0.1175537109375,-0.01129150390625,0.0177001953125,3.312977099236641,0.5038167938931297,-0.366412213740458
1646443366727.2898,-0.12640380859375,-0.0115966796875,0.01519775390625,3.4122137404580157,0.1145038167938931,-0.3740458015267175
1646443366745.0298,-0.12005615234375,-0.00848388671875,0.008056640625,3.33587786259542,0.1221374045801526,-0.4351145038167939
1646443366762.5474,-0.11492919921875,-0.00445556640625,-0.01495361328125,3.0839694656488548,0.2748091603053435,-0.4198473282442748
1646443366779.877,-0.12109375,-0.00897216796875,0.01397705078125,2.7099236641221376,0.2900763358778626,-0.3740458015267175
1646443366796.6,-0.12237548828125,-0.00823974609375,0.00494384765625,2.519083969465649,0.3816793893129771,-0.4122137404580153
1646443366813.5066,-0.12005615234375,-0.009521484375,0.0157470703125,2.4656488549618323,0.3129770992366412,-0.3893129770992366
1646443366830.2163,-0.11773681640625,-0.00732421875,0.01214599609375,2.83206106870229,0.1068702290076335,-0.3969465648854962
1646443366847.0576,-0.1212158203125,-0.01129150390625,0.01788330078125,3.0229007633587788,0.2137404580152671,-0.4198473282442748
1646443366863.796,-0.12506103515625,-0.00799560546875,0.001220703125,2.7099236641221376,0.5190839694656488,-0.3358778625954198
1646443366880.9978,-0.1153564453125,-0.0086669921875,0.0318603515625,2.4885496183206106,-0.2137404580152671,-0.465648854961832
1646443366898.715,-0.12030029296875,-0.0048828125,-0.01263427734375,2.267175572519084,0.0229007633587786,-0.4122137404580153
1646443366916.2483,-0.12371826171875,-0.00970458984375,0.0078125,2.450381679389313,0.2595419847328244,-0.4122137404580153
1646443366933.9011,-0.1170654296875,-0.00921630859375,0.01007080078125,2.66412213740458,0.3053435114503817,-0.4198473282442748
1646443366951.3909,-0.122314453125,-0.0101318359375,0.01666259765625,2.6717557251908395,0.1297709923664122,-0.4045801526717557
1646443366969.0688,-0.119873046875,-0.01043701171875,0.01275634765625,2.7938931297709924,0.465648854961832,-0.3435114503816794
1646443366986.113,-0.12347412109375,-0.00738525390625,0.0023193359375,2.786259541984733,0.3206106870229007,-0.3816793893129771
1646443367002.8027,-0.1201171875,-0.006103515625,-0.00103759765625,2.366412213740458,0.4122137404580153,-0.366412213740458
1646443367019.6738,-0.11865234375,-0.0098876953125,0.00726318359375,1.9770992366412212,0.1908396946564885,-0.3816793893129771
1646443367036.3477,-0.12188720703125,-0.0084228515625,0.00634765625,2.0916030534351147,0.3358778625954198,-0.3969465648854962
1646443367053.2605,-0.12164306640625,-0.00811767578125,0.0128173828125,1.7709923664122138,0.1603053435114503,-0.4045801526717557
1646443367070.0637,-0.12335205078125,-0.0093994140625,0.016845703125,1.5801526717557253,0.4427480916030534,-0.3129770992366412
1646443367087.8164,-0.11822509765625,-0.00518798828125,-0.004150390625,1.6564885496183206,0.2366412213740458,-0.4045801526717557
1646443367105.2937,-0.11907958984375,-0.010498046875,0.01995849609375,2.183206106870229,0.2137404580152671,-0.4351145038167939
1646443367122.7625,-0.1243896484375,-0.00628662109375,-0.00299072265625,2.16793893129771,0.5267175572519084,-0.3435114503816794
1646443367140.6584,-0.1220703125,-0.0078125,0.0087890625,1.7099236641221374,0.2977099236641221,-0.3816793893129771
1646443367158.1592,-0.122802734375,-0.00775146484375,-0.00531005859375,1.801526717557252,0.6183206106870229,-0.3587786259541984
1646443367175.8914,-0.12176513671875,-0.00634765625,0.00518798828125,2.282442748091603,0.3206106870229007,-0.366412213740458
1646443367192.642,-0.11871337890625,-0.01068115234375,0.00201416015625,1.7938931297709924,-0.3053435114503817,-0.4122137404580153
1646443367209.505,-0.123046875,-0.012451171875,0.02313232421875,1.984732824427481,-0.2137404580152671,-0.3969465648854962
1646443367227.9082,-0.12255859375,-0.010986328125,0.00128173828125,1.534351145038168,-0.015267175572519,-0.3587786259541984
1646443367244.7852,-0.12469482421875,-0.00762939453125,0.0054931640625,1.213740458015267,0.1679389312977099,-0.4045801526717557
1646443367261.464,-0.11993408203125,-0.0050048828125,0.00360107421875,1.923664122137405,0.2519083969465648,-0.4274809160305343
1646443367278.6858,-0.11895751953125,-0.00640869140625,0.0030517578125,2.0839694656488548,0.2977099236641221,-0.4274809160305343
1646443367296.4124,-0.119384765625,-0.0029296875,-0.00311279296875,2.2748091603053435,-0.1450381679389313,-0.5267175572519084
1646443367313.9182,-0.12103271484375,-0.0081787109375,0.00592041015625,2.366412213740458,0.2442748091603053,-0.4198473282442748
1646443367331.6316,-0.12213134765625,-0.01129150390625,0.00433349609375,2.1908396946564888,0.3129770992366412,-0.4045801526717557
1646443367349.1667,-0.11968994140625,-0.00848388671875,-0.0029296875,2.2519083969465647,0.015267175572519,-0.4427480916030534
1646443367366.8396,-0.12164306640625,-0.009765625,0.00958251953125,2.2595419847328246,-0.549618320610687,-0.465648854961832
1646443367383.901,-0.1240234375,-0.005859375,-0.0003662109375,3.2519083969465647,0.1221374045801526,-0.4503816793893129
1646443367400.554,-0.12579345703125,-0.01068115234375,0.02838134765625,3.885496183206107,-0.0763358778625954,-0.5038167938931297
1646443367417.433,-0.1231689453125,-0.01025390625,0.00518798828125,4.183206106870229,0.5267175572519084,-0.4503816793893129
1646443367434.162,-0.1236572265625,-0.0084228515625,0.003173828125,4.778625954198473,0.366412213740458,-0.4885496183206106
1646443367450.9917,-0.12591552734375,-0.01251220703125,0.0091552734375,4.885496183206107,0.5572519083969466,-0.4351145038167939
1646443367467.7234,-0.1260986328125,-0.0123291015625,0.00982666015625,4.297709923664122,0.015267175572519,-0.4961832061068702
1646443367485.0957,-0.118896484375,-0.00921630859375,-0.01287841796875,4.709923664122138,0.6793893129770993,-0.4580152671755725
1646443367502.5757,-0.128173828125,-0.010009765625,0.0113525390625,5.198473282442748,0.5419847328244275,-0.4122137404580153
1646443367520.0476,-0.111572265625,-0.0030517578125,-0.00665283203125,5.282442748091603,0.1526717557251908,-0.5801526717557252
1646443367537.672,-0.12371826171875,-0.00994873046875,0.01617431640625,4.610687022900764,0.5114503816793893,-0.3969465648854962
1646443367555.1565,-0.13494873046875,-0.00799560546875,0.0040283203125,4.458015267175573,0.183206106870229,-0.4274809160305343
1646443367572.7864,-0.12274169921875,-0.00946044921875,0.0042724609375,4.564885496183206,0.3587786259541984,-0.465648854961832
1646443367589.761,-0.12139892578125,-0.00689697265625,-0.009765625,4.488549618320611,0.8015267175572519,-0.4198473282442748
1646443367606.6716,-0.1319580078125,-0.01019287109375,0.01654052734375,4.312977099236641,0.3435114503816794,-0.4198473282442748
1646443367623.3286,-0.12109375,-0.00689697265625,0.00665283203125,4.297709923664122,0.1374045801526717,-0.4427480916030534
1646443367640.027,-0.1224365234375,-0.00921630859375,0.01104736328125,3.49618320610687,0.0458015267175572,-0.4732824427480916
1646443367656.8804,-0.11907958984375,-0.0093994140625,0.01953125,4.030534351145038,0.3282442748091603,-0.465648854961832
1646443367673.579,-0.11883544921875,-0.00799560546875,0.01287841796875,3.572519083969466,0.3816793893129771,-0.4274809160305343
1646443367691.4175,-0.12451171875,-0.00762939453125,0.01165771484375,2.816793893129771,0.2442748091603053,-0.4427480916030534
1646443367708.9067,-0.12451171875,-0.01092529296875,0.00897216796875,2.7557251908396947,0.1221374045801526,-0.366412213740458
1646443367726.5574,-0.12384033203125,-0.0142822265625,0.04827880859375,3.213740458015267,-0.0839694656488549,-0.3969465648854962
1646443367744.0398,-0.1259765625,-0.01202392578125,0.0250244140625,2.236641221374046,0.3282442748091603,-0.4122137404580153
1646443367761.6602,-0.119873046875,-0.00836181640625,0.00909423828125,2.3740458015267176,0.4809160305343511,-0.3969465648854962
1646443367779.1077,-0.1214599609375,-0.00946044921875,0.00701904296875,1.8396946564885497,0.4122137404580153,-0.4122137404580153
1646443367795.7988,-0.122802734375,-0.00885009765625,0.01129150390625,1.5877862595419847,0.0,-0.4274809160305343
1646443367812.64,-0.12200927734375,-0.01031494140625,0.0108642578125,1.6641221374045805,0.3587786259541984,-0.3435114503816794
1646443367829.327,-0.1217041015625,-0.00982666015625,0.0167236328125,2.122137404580153,0.2519083969465648,-0.3893129770992366
1646443367846.2222,-0.1207275390625,-0.01031494140625,0.01605224609375,1.5725190839694656,0.2671755725190839,-0.3587786259541984
1646443367862.9446,-0.121337890625,-0.00909423828125,0.011962890625,1.786259541984733,0.3435114503816794,-0.3587786259541984
1646443367880.1326,-0.120849609375,-0.00982666015625,0.0142822265625,2.0,0.3587786259541984,-0.4122137404580153
1646443367897.6016,-0.1201171875,-0.01104736328125,0.01190185546875,1.870229007633588,0.3358778625954198,-0.4045801526717557
1646443367915.0894,-0.12518310546875,-0.0101318359375,0.00689697265625,2.099236641221374,0.4045801526717557,-0.366412213740458
1646443367932.773,-0.12371826171875,-0.0087890625,0.00299072265625,2.312977099236641,0.4427480916030534,-0.3969465648854962
1646443367950.2495,-0.12127685546875,-0.01287841796875,0.02239990234375,2.198473282442748,0.1374045801526717,-0.4045801526717557
1646443367967.919,-0.1217041015625,-0.00927734375,0.0205078125,2.267175572519084,0.0763358778625954,-0.3816793893129771
1646443367985.2185,-0.12176513671875,-0.0086669921875,0.00189208984375,2.687022900763359,0.3893129770992366,-0.3816793893129771
1646443368002.123,-0.121826171875,-0.00579833984375,0.01055908203125,2.5114503816793894,-0.2061068702290076,-0.4351145038167939
1646443368018.7988,-0.118408203125,-0.00433349609375,-0.0068359375,2.5801526717557253,0.8702290076335878,-0.3969465648854962
1646443368035.6675,-0.119873046875,-0.00811767578125,0.01373291015625,3.030534351145038,0.3511450381679389,-0.4503816793893129
1646443368052.3872,-0.12310791015625,-0.00457763671875,-0.0086669921875,2.213740458015267,0.2442748091603053,-0.4274809160305343
1646443368069.0637,-0.12200927734375,-0.01092529296875,0.00897216796875,2.2442748091603053,0.3893129770992366,-0.4045801526717557
1646443368086.491,-0.12091064453125,-0.00885009765625,0.01226806640625,2.4656488549618323,0.7862595419847328,-0.366412213740458
1646443368103.9646,-0.119384765625,-0.0091552734375,0.02569580078125,2.6564885496183206,0.6717557251908397,-0.3816793893129771
1646443368121.6028,-0.120361328125,-0.0089111328125,0.01397705078125,2.3282442748091605,0.6870229007633588,-0.3282442748091603
1646443368139.0503,-0.12359619140625,-0.0081787109375,0.00506591796875,2.83206106870229,0.7862595419847328,-0.3740458015267175
1646443368156.7417,-0.1195068359375,-0.010986328125,0.0306396484375,2.9236641221374047,0.0534351145038167,-0.4885496183206106
1646443368174.3672,-0.1220703125,-0.00946044921875,0.02032470703125,2.3587786259541983,0.0381679389312977,-0.3511450381679389
1646443368191.476,-0.118408203125,-0.0035400390625,-0.0084228515625,2.9618320610687023,0.5343511450381679,-0.4427480916030534
1646443368208.3672,-0.11883544921875,-0.01055908203125,0.0152587890625,2.3282442748091605,0.3587786259541984,-0.4351145038167939
1646443368226.7026,-0.12139892578125,-0.013427734375,0.02313232421875,2.549618320610687,0.0,-0.4045801526717557
1646443368243.6455,-0.11895751953125,-0.015625,0.0374755859375,2.0,-0.0076335877862595,-0.3969465648854962
1646443368260.297,-0.12078857421875,-0.0052490234375,-0.0223388671875,2.49618320610687,0.6641221374045801,-0.3816793893129771
1646443368281.4434,-0.1190185546875,-0.01171875,0.01763916015625,2.946564885496183,-0.0229007633587786,-0.4809160305343511
1646443368298.942,-0.1229248046875,-0.0103759765625,0.0157470703125,3.3282442748091605,0.6106870229007634,-0.4122137404580153
1646443368316.6458,-0.12060546875,-0.01104736328125,0.0140380859375,2.801526717557252,0.3282442748091603,-0.3893129770992366
1646443368334.1377,-0.12091064453125,-0.00811767578125,0.00244140625,2.8091603053435112,0.7099236641221374,-0.3893129770992366
1646443368351.6084,-0.12158203125,-0.00787353515625,0.00518798828125,2.6946564885496183,0.2900763358778626,-0.4580152671755725
1646443368369.3137,-0.1221923828125,-0.01080322265625,0.03228759765625,3.610687022900764,0.6030534351145038,-0.4732824427480916
1646443368386.7305,-0.12249755859375,-0.00958251953125,0.01470947265625,2.984732824427481,-0.1450381679389313,-0.4961832061068702
1646443368403.6184,-0.12091064453125,-0.00897216796875,0.0079345703125,2.870229007633588,0.5725190839694656,-0.3893129770992366
1646443368420.3313,-0.12054443359375,-0.00787353515625,0.006591796875,2.4122137404580157,0.1679389312977099,-0.4198473282442748
1646443368437.185,-0.1209716796875,-0.010009765625,0.001708984375,2.198473282442748,0.5648854961832062,-0.366412213740458
1646443368453.9084,-0.12127685546875,-0.0093994140625,0.0048828125,2.549618320610687,0.0534351145038167,-0.4198473282442748
1646443368470.5898,-0.1220703125,-0.01043701171875,0.01611328125,1.801526717557252,-0.0839694656488549,-0.4351145038167939
1646443368487.786,-0.1204833984375,-0.005859375,-0.0054931640625,1.5267175572519085,0.3893129770992366,-0.3740458015267175
1646443368505.277,-0.119873046875,-0.008056640625,0.0081787109375,1.465648854961832,0.0610687022900763,-0.4122137404580153
1646443368522.9812,-0.12152099609375,-0.01007080078125,0.00543212890625,1.4961832061068705,0.3282442748091603,-0.3893129770992366
1646443368540.5037,-0.1201171875,-0.0084228515625,0.00164794921875,1.5877862595419847,0.5954198473282443,-0.366412213740458
1646443368558.1987,-0.1204833984375,-0.0087890625,-0.00018310546875,1.381679389312977,0.015267175572519,-0.4274809160305343
1646443368575.716,-0.12347412109375,-0.01104736328125,0.017578125,1.1908396946564883,0.2442748091603053,-0.3969465648854962
1646443368592.8557,-0.1209716796875,-0.007568359375,0.00921630859375,0.9694656488549618,0.1221374045801526,-0.3740458015267175
1646443368609.6704,-0.122314453125,-0.0074462890625,0.00830078125,1.366412213740458,0.3816793893129771,-0.3358778625954198
1646443368626.345,-0.11962890625,-0.0086669921875,0.01019287109375,1.3587786259541983,0.366412213740458,-0.3511450381679389
1646443368643.1855,-0.12017822265625,-0.01080322265625,0.0216064453125,0.732824427480916,0.2519083969465648,-0.3435114503816794
1646443368659.868,-0.12127685546875,-0.00830078125,0.0048828125,0.816793893129771,0.3587786259541984,-0.3511450381679389
1646443368676.6992,-0.1220703125,-0.01092529296875,0.00616455078125,0.3816793893129771,-0.1908396946564885,-0.3587786259541984
1646443368694.1467,-0.12091064453125,-0.00689697265625,0.0050048828125,0.8091603053435115,0.1908396946564885,-0.3587786259541984
1646443368711.822,-0.123779296875,-0.00732421875,0.00921630859375,1.2900763358778626,0.0839694656488549,-0.4427480916030534
1646443368729.3103,-0.1201171875,-0.00738525390625,0.00872802734375,1.4274809160305344,0.1297709923664122,-0.3893129770992366
1646443368746.8252,-0.12152099609375,-0.00738525390625,0.01373291015625,2.564885496183206,-0.1068702290076335,-0.4961832061068702
1646443368764.5164,-0.12078857421875,-0.01129150390625,0.0364990234375,2.6717557251908395,0.3893129770992366,-0.4122137404580153
1646443368782.1194,-0.1204833984375,-0.00701904296875,0.014404296875,3.213740458015267,0.2442748091603053,-0.4198473282442748
1646443368799.1033,-0.124755859375,-0.0086669921875,-0.0032958984375,2.732824427480916,0.3129770992366412,-0.4122137404580153
1646443368815.7852,-0.1234130859375,-0.0074462890625,-0.00830078125,3.122137404580153,0.7786259541984732,-0.3740458015267175
1646443368832.6614,-0.1214599609375,-0.01025390625,0.00732421875,2.8091603053435112,0.2366412213740458,-0.4427480916030534
1646443368849.3596,-0.12371826171875,-0.008544921875,0.00201416015625,2.900763358778626,0.5725190839694656,-0.4045801526717557
1646443368866.0906,-0.1182861328125,-0.01397705078125,0.030029296875,3.3053435114503817,0.0839694656488549,-0.4885496183206106
1646443368882.9717,-0.11907958984375,-0.0059814453125,-0.00347900390625,3.3206106870229006,0.9465648854961832,-0.4351145038167939
1646443368900.49,-0.12103271484375,-0.00909423828125,0.00885009765625,3.0229007633587788,0.648854961832061,-0.4503816793893129
1646443368918.1887,-0.12103271484375,-0.0062255859375,-0.00830078125,2.6793893129771,0.4045801526717557,-0.4045801526717557
1646443368935.6636,-0.119873046875,-0.00946044921875,0.01800537109375,3.2442748091603053,0.2977099236641221,-0.465648854961832
1646443368953.3345,-0.12213134765625,-0.0089111328125,-0.001220703125,3.5801526717557253,0.2824427480916031,-0.4809160305343511
1646443368970.802,-0.1201171875,-0.01116943359375,0.00994873046875,2.900763358778626,0.1755725190839694,-0.4580152671755725
1646443368988.286,-0.12042236328125,-0.00701904296875,-0.01092529296875,2.3740458015267176,0.6183206106870229,-0.3969465648854962
1646443369005.1382,-0.12078857421875,-0.00946044921875,-0.00421142578125,2.3435114503816794,0.099236641221374,-0.4274809160305343
1646443369021.8718,-0.1202392578125,-0.00665283203125,-0.00506591796875,3.0229007633587788,0.5648854961832062,-0.4427480916030534
1646443369038.697,-0.120849609375,-0.008544921875,0.00445556640625,2.816793893129771,0.4274809160305343,-0.4198473282442748
1646443369055.4485,-0.1260986328125,-0.00946044921875,-0.00689697265625,2.236641221374046,0.3206106870229007,-0.3969465648854962
1646443369072.3225,-0.12042236328125,-0.0120849609375,0.008056640625,2.0381679389312977,0.2595419847328244,-0.4045801526717557
1646443369089.2258,-0.11700439453125,-0.0087890625,0.005126953125,1.236641221374046,0.2366412213740458,-0.3816793893129771
1646443369106.955,-0.1219482421875,-0.00970458984375,0.00457763671875,1.717557251908397,0.5114503816793893,-0.3587786259541984
1646443369124.4226,-0.12188720703125,-0.00897216796875,0.00421142578125,1.786259541984733,0.3587786259541984,-0.4198473282442748
1646443369141.952,-0.12225341796875,-0.009521484375,0.01202392578125,0.7786259541984732,-0.0458015267175572,-0.3893129770992366
1646443369159.6616,-0.1231689453125,-0.00848388671875,-0.0047607421875,1.2900763358778626,0.3587786259541984,-0.3740458015267175
1646443369177.135,-0.12158203125,-0.0074462890625,0.0078125,1.3511450381679388,0.3587786259541984,-0.3893129770992366
1646443369194.57,-0.1224365234375,-0.00848388671875,0.0086669921875,1.083969465648855,0.2290076335877862,-0.4198473282442748
1646443369211.2969,-0.12200927734375,-0.00714111328125,0.00830078125,1.6488549618320612,0.2519083969465648,-0.4274809160305343
1646443369229.7769,-0.11993408203125,-0.0074462890625,0.00189208984375,1.763358778625954,0.2748091603053435,-0.3969465648854962
1646443369246.37,-0.12115478515625,-0.0054931640625,0.000244140625,1.7251908396946565,0.3893129770992366,-0.4351145038167939
1646443369263.1106,-0.12493896484375,-0.00634765625,0.005126953125,1.748091603053435,0.3282442748091603,-0.4503816793893129
1646443369279.966,-0.11865234375,-0.00958251953125,0.01068115234375,1.633587786259542,0.0916030534351145,-0.4351145038167939
1646443369297.4863,-0.11749267578125,-0.00933837890625,0.0025634765625,1.7557251908396947,0.1679389312977099,-0.4274809160305343
1646443369315.212,-0.1214599609375,-0.0123291015625,0.0137939453125,1.5725190839694656,0.0534351145038167,-0.4122137404580153
1646443369332.6914,-0.122802734375,-0.00946044921875,0.0054931640625,1.1221374045801529,0.1984732824427481,-0.3969465648854962
1646443369350.3457,-0.12103271484375,-0.00848388671875,0.007080078125,1.549618320610687,0.5038167938931297,-0.4045801526717557
1646443369367.809,-0.12408447265625,-0.0069580078125,0.00640869140625,1.4351145038167938,0.3893129770992366,-0.3969465648854962
1646443369385.5945,-0.12603759765625,-0.0048828125,-0.0062255859375,1.6488549618320612,0.3129770992366412,-0.3740458015267175
1646443369402.469,-0.12158203125,-0.008056640625,0.01971435546875,2.0839694656488548,0.2061068702290076,-0.4274809160305343
1646443369419.1692,-0.12176513671875,-0.0072021484375,0.01702880859375,2.053435114503817,0.2366412213740458,-0.4122137404580153
1646443369436.021,-0.1246337890625,-0.00653076171875,0.00433349609375,1.6488549618320612,0.1679389312977099,-0.4351145038167939
1646443369452.6963,-0.12152099609375,-0.00933837890625,0.01300048828125,1.7099236641221374,0.4045801526717557,-0.4198473282442748
1646443369469.5093,-0.12237548828125,-0.0098876953125,0.0079345703125,2.15267175572519,0.5114503816793893,-0.3816793893129771
1646443369486.313,-0.121826171875,-0.01055908203125,0.01263427734375,1.6259541984732824,0.3969465648854962,-0.3740458015267175
1646443369504.0198,-0.12176513671875,-0.00958251953125,0.01422119140625,1.6717557251908397,0.099236641221374,-0.4045801526717557
1646443369521.487,-0.12310791015625,-0.00665283203125,0.001708984375,1.3435114503816794,0.0534351145038167,-0.4045801526717557
