timestamp,acc_x,acc_y,acc_z,gyr_x,gyr_y,gyr_z
1646443391763.7014,-0.00128173828125,0.12054443359375,0.0211181640625,-0.5954198473282443,0.1679389312977099,-0.366412213740458
1646443391778.4636,-0.0015869140625,0.12237548828125,0.02154541015625,-0.6259541984732825,0.1450381679389313,-0.3816793893129771
1646443391793.0854,-0.0013427734375,0.1212158203125,0.021484375,-0.6335877862595419,0.1755725190839694,-0.3511450381679389
1646443391807.894,-0.0009765625,0.12127685546875,0.020751953125,-0.6564885496183206,0.1755725190839694,-0.366412213740458
1646443391822.4531,0.0037841796875,0.11724853515625,0.0191650390625,-0.6335877862595419,0.2366412213740458,-0.5190839694656488
1646443391837.0862,0.00640869140625,0.1221923828125,0.02398681640625,-0.6870229007633588,0.1526717557251908,-1.068702290076336
1646443391851.6152,-0.002197265625,0.121826171875,0.021240234375,-0.648854961832061,0.3587786259541984,-1.3435114503816794
1646443391866.1758,-0.004638671875,0.12322998046875,0.0225830078125,-0.6717557251908397,0.3206106870229007,-1.16793893129771
1646443391880.8733,-0.0059814453125,0.12158203125,0.02197265625,-0.7099236641221374,0.2213740458015267,-0.916030534351145
1646443391895.3992,-0.00457763671875,0.122314453125,0.02252197265625,-0.7022900763358778,0.1984732824427481,-0.7099236641221374
1646443391910.1035,-0.003173828125,0.12249755859375,0.02386474609375,-0.5954198473282443,0.1984732824427481,-0.5572519083969466
1646443391924.696,-0.00384521484375,0.12176513671875,0.02435302734375,-0.2977099236641221,0.2213740458015267,-0.4885496183206106
1646443391939.252,-0.0042724609375,0.12200927734375,0.02227783203125,-0.1145038167938931,0.2824427480916031,-0.3511450381679389
1646443391954.0352,-0.00836181640625,0.118408203125,0.02532958984375,-0.0381679389312977,0.2977099236641221,0.2137404580152671
1646443391968.5847,-0.00079345703125,0.11932373046875,0.02020263671875,-0.2977099236641221,-0.1755725190839694,0.2290076335877862
1646443391983.316,0.0040283203125,0.123291015625,0.02130126953125,-0.1984732824427481,0.1068702290076335,0.015267175572519
1646443391997.8967,-0.00018310546875,0.1185302734375,0.02252197265625,-0.1679389312977099,0.2213740458015267,-0.2900763358778626
1646443392012.4736,-0.0040283203125,0.12310791015625,0.0196533203125,-0.3129770992366412,0.2519083969465648,-0.2519083969465648
1646443392027.1648,-0.0037841796875,0.118408203125,0.01910400390625,-0.3893129770992366,0.1755725190839694,-0.183206106870229
1646443392041.7383,-0.00286865234375,0.1217041015625,0.0194091796875,-0.5343511450381679,0.1297709923664122,-0.0458015267175572
1646443392056.442,-0.003173828125,0.11956787109375,0.02001953125,-0.6564885496183206,0.0839694656488549,-0.015267175572519
1646443392070.938,-0.00262451171875,0.1217041015625,0.01971435546875,-0.7480916030534351,0.1145038167938931,0.0229007633587786
1646443392085.4524,-0.00238037109375,0.12103271484375,0.019775390625,-0.8091603053435115,0.1603053435114503,0.1221374045801526
1646443392100.1506,-0.001220703125,0.12054443359375,0.01934814453125,-0.9541984732824428,0.1145038167938931,0.1068702290076335
1646443392114.6416,0.01202392578125,0.11871337890625,0.01715087890625,-1.068702290076336,0.1679389312977099,-0.6641221374045801
1646443392129.318,0.0,0.11572265625,0.01837158203125,-1.3129770992366412,0.0916030534351145,-1.068702290076336
1646443392143.8628,-0.00653076171875,0.12640380859375,0.0218505859375,-1.6259541984732824,-0.0839694656488549,-0.8854961832061069
1646443392158.4534,0.00030517578125,0.12164306640625,0.02606201171875,-1.015267175572519,-0.3435114503816794,-0.5267175572519084
1646443392173.1675,0.00177001953125,0.1190185546875,0.03973388671875,-1.4198473282442747,-0.7862595419847328,-0.3435114503816794
1646443392187.725,0.00018310546875,0.11785888671875,0.05181884765625,-0.6106870229007634,-0.3816793893129771,-0.2748091603053435
1646443392202.4084,0.00250244140625,0.12030029296875,0.0352783203125,-0.8931297709923665,-0.3511450381679389,-0.4045801526717557
1646443392216.951,0.001953125,0.122314453125,0.02764892578125,-0.8778625954198473,-1.1374045801526718,-0.5572519083969466
1646443392231.5503,-0.00177001953125,0.12164306640625,0.02471923828125,-1.0,-1.251908396946565,-0.4809160305343511
1646443392246.3416,-0.0010986328125,0.1204833984375,0.025634765625,-0.8702290076335878,-1.4961832061068705,-0.4503816793893129
1646443392260.91,-0.0020751953125,0.12066650390625,0.02850341796875,-0.4961832061068702,-1.4427480916030535,-0.4580152671755725
1646443392275.6726,-0.00152587890625,0.122314453125,0.0238037109375,-0.4961832061068702,-1.450381679389313,-0.4961832061068702
1646443392290.2458,-0.0009765625,0.12030029296875,0.02392578125,-0.5801526717557252,-1.465648854961832,-0.4732824427480916
1646443392305.3574,-0.00030517578125,0.11968994140625,0.0252685546875,-0.6183206106870229,-1.847328244274809,-0.5038167938931297
1646443392321.1216,-0.00048828125,0.119873046875,0.0223388671875,-0.7251908396946565,-2.2442748091603053,-0.5267175572519084
1646443392336.7693,-0.00067138671875,0.12042236328125,0.02569580078125,-0.6946564885496184,-2.4885496183206106,-0.6183206106870229
1646443392352.5415,-0.001953125,0.1199951171875,0.025390625,-0.7175572519083969,-2.5877862595419847,-0.6870229007633588
1646443392368.079,0.00079345703125,0.12042236328125,0.02532958984375,-0.8549618320610687,-2.8091603053435112,-0.6335877862595419
1646443392383.671,-0.00299072265625,0.1199951171875,0.03021240234375,-0.7404580152671756,-2.916030534351145,-0.5725190839694656
1646443392399.4153,0.00372314453125,0.1175537109375,0.03546142578125,-0.4351145038167939,-2.900763358778626,-0.5954198473282443
1646443392415.6973,0.0,0.1219482421875,0.025634765625,-0.549618320610687,-3.2442748091603053,-0.6641221374045801
1646443392432.173,0.0,0.121337890625,0.0218505859375,-0.4961832061068702,-3.351145038167939,-0.7862595419847328
1646443392448.461,-0.000244140625,0.1221923828125,0.01373291015625,-0.549618320610687,-3.824427480916031,-0.8244274809160306
1646443392464.9111,-0.00311279296875,0.12261962890625,0.023681640625,-0.4427480916030534,-3.5801526717557253,-0.8091603053435115
1646443392481.282,-0.00146484375,0.1204833984375,0.02789306640625,-0.6412213740458015,-3.648854961832061,-0.8015267175572519
1646443392497.5657,-0.00091552734375,0.12017822265625,0.03082275390625,-0.6183206106870229,-3.4122137404580157,-0.8015267175572519
1646443392513.4114,-0.0015869140625,0.1204833984375,0.0244140625,-0.366412213740458,-3.5877862595419847,-0.8244274809160306
1646443392529.0212,-0.00164794921875,0.1199951171875,0.0238037109375,-0.2442748091603053,-3.2442748091603053,-0.8396946564885496
1646443392544.7466,0.00067138671875,0.12127685546875,0.02398681640625,-0.4503816793893129,-3.312977099236641,-0.8473282442748091
1646443392560.302,-0.00384521484375,0.122314453125,0.02178955078125,-0.1145038167938931,-3.068702290076336,-0.7938931297709924
1646443392575.8494,-0.00494384765625,0.12091064453125,0.017578125,-0.1679389312977099,-2.816793893129771,-0.7175572519083969
1646443392591.5706,-0.00146484375,0.1214599609375,0.01922607421875,-0.1068702290076335,-2.404580152671756,-0.648854961832061
1646443392607.6787,-0.002685546875,0.1207275390625,0.0235595703125,-0.1984732824427481,-2.4885496183206106,-0.6335877862595419
1646443392624.173,-0.00335693359375,0.120361328125,0.02545166015625,-0.3587786259541984,-2.633587786259542,-0.648854961832061
1646443392640.5044,-0.0015869140625,0.1219482421875,0.01934814453125,-0.465648854961832,-2.648854961832061,-0.6106870229007634
1646443392656.8892,-0.00244140625,0.1202392578125,0.0234375,-0.4732824427480916,-2.66412213740458,-0.6183206106870229
1646443392673.367,-0.00250244140625,0.11981201171875,0.02618408203125,-0.4809160305343511,-2.732824427480916,-0.6183206106870229
1646443392689.68,-0.00164794921875,0.12103271484375,0.0205078125,-0.6641221374045801,-2.8931297709923665,-0.6412213740458015
1646443392706.1814,-0.001220703125,0.12237548828125,0.01690673828125,-0.6641221374045801,-3.030534351145038,-0.6946564885496184
1646443392721.7205,-0.0006103515625,0.1219482421875,0.01947021484375,-0.5419847328244275,-2.877862595419847,-0.6717557251908397
1646443392737.2546,-0.00262451171875,0.1197509765625,0.02667236328125,-0.4274809160305343,-2.977099236641221,-0.732824427480916
1646443392753.012,-0.0013427734375,0.12152099609375,0.01934814453125,-0.6870229007633588,-3.267175572519084,-0.7557251908396947
1646443392768.5735,-0.003173828125,0.1220703125,0.02313232421875,-0.6641221374045801,-3.3740458015267176,-0.7709923664122137
1646443392784.2874,-0.00189208984375,0.12054443359375,0.02978515625,-0.3053435114503817,-3.106870229007633,-0.7633587786259542
1646443392799.8477,-0.00225830078125,0.1204833984375,0.02667236328125,-0.099236641221374,-3.122137404580153,-0.7862595419847328
1646443392816.3535,-0.00146484375,0.12261962890625,0.0145263671875,-0.3282442748091603,-3.2977099236641223,-0.8015267175572519
1646443392832.8545,-0.00067138671875,0.12152099609375,0.01849365234375,-0.3053435114503817,-3.068702290076336,-0.8625954198473282
1646443392849.158,-0.00054931640625,0.12347412109375,0.013427734375,-0.5725190839694656,-3.3206106870229006,-0.8778625954198473
1646443392865.7085,-0.00360107421875,0.12042236328125,0.02398681640625,-0.0458015267175572,-3.068702290076336,-0.8778625954198473
1646443392882.0178,-0.00079345703125,0.1219482421875,0.0169677734375,-0.4198473282442748,-3.3587786259541983,-0.8549618320610687
1646443392898.292,-0.0003662109375,0.12005615234375,0.02490234375,-0.3740458015267175,-3.122137404580153,-0.816793893129771
1646443392914.3948,-0.00335693359375,0.11944580078125,0.0159912109375,-0.916030534351145,-3.473282442748092,-0.8091603053435115
1646443392929.9707,-0.00213623046875,0.12066650390625,0.0186767578125,-0.5114503816793893,-2.7938931297709924,-0.7099236641221374
1646443392945.7354,0.00054931640625,0.11871337890625,0.02783203125,-0.4427480916030534,-2.938931297709924,-0.732824427480916
1646443392961.3308,-0.00164794921875,0.120361328125,0.02545166015625,-0.2824427480916031,-3.145038167938931,-0.7633587786259542
1646443392976.883,-0.0015869140625,0.11956787109375,0.0303955078125,-0.0381679389312977,-3.206106870229008,-0.7862595419847328
1646443392992.6648,-0.00250244140625,0.11944580078125,0.02679443359375,-0.1374045801526717,-3.2290076335877864,-0.7862595419847328
1646443393008.7476,-0.001953125,0.12469482421875,0.01715087890625,-0.5114503816793893,-3.33587786259542,-0.732824427480916
1646443393025.2456,-0.00238037109375,0.12164306640625,0.0272216796875,-0.732824427480916,-3.480916030534351,-0.7633587786259542
1646443393041.533,-0.0020751953125,0.12152099609375,0.02569580078125,-0.5190839694656488,-3.1297709923664123,-0.7099236641221374
1646443393057.8157,-0.0010986328125,0.121826171875,0.02044677734375,-0.6793893129770993,-3.3053435114503817,-0.6946564885496184
1646443393074.3308,-0.00091552734375,0.11968994140625,0.02252197265625,-0.5267175572519084,-3.1297709923664123,-0.6946564885496184
1646443393090.6462,-0.00262451171875,0.12078857421875,0.01824951171875,-0.7175572519083969,-3.0,-0.7175572519083969
1646443393107.2031,-0.00054931640625,0.11981201171875,0.0238037109375,-0.9541984732824428,-3.114503816793893,-0.7404580152671756
1646443393122.732,-0.0015869140625,0.123291015625,0.02490234375,-0.7786259541984732,-3.0381679389312977,-0.6870229007633588
1646443393138.3826,0.0010986328125,0.1221923828125,0.02374267578125,-0.5648854961832062,-3.282442748091603,-0.6870229007633588
1646443393154.2126,-0.0013427734375,0.11749267578125,0.02850341796875,-0.2977099236641221,-3.3969465648854964,-0.7022900763358778
1646443393169.7937,-0.00201416015625,0.12255859375,0.02691650390625,-0.4427480916030534,-3.610687022900764,-0.7022900763358778
1646443393185.513,-0.001708984375,0.11688232421875,0.023193359375,-0.2213740458015267,-3.4885496183206106,-0.7938931297709924
1646443393201.0444,-6.103515625e-05,0.121337890625,0.02734375,-0.9389312977099236,-4.274809160305344,-0.8244274809160306
1646443393217.2102,-0.0013427734375,0.1182861328125,0.0194091796875,-0.5114503816793893,-4.305343511450381,-0.9389312977099236
1646443393233.8247,-0.00091552734375,0.12054443359375,0.02313232421875,-0.6412213740458015,-4.404580152671755,-0.9847328244274808
1646443393250.1626,-0.00494384765625,0.12139892578125,0.020751953125,-0.5267175572519084,-4.076335877862595,-0.931297709923664
1646443393266.673,0.00128173828125,0.122802734375,0.024658203125,-0.6412213740458015,-4.038167938931298,-0.8473282442748091
1646443393283.0522,-0.00494384765625,0.1226806640625,0.012939453125,-0.4198473282442748,-3.992366412213741,-0.8473282442748091
1646443393299.3833,-0.001708984375,0.12255859375,0.0191650390625,-0.5343511450381679,-3.992366412213741,-0.7938931297709924
1646443393315.6396,-0.0023193359375,0.12139892578125,0.0257568359375,-0.4045801526717557,-4.038167938931298,-0.8091603053435115
1646443393331.183,0.0008544921875,0.12030029296875,0.0198974609375,-0.648854961832061,-4.0458015267175576,-0.7862595419847328
1646443393346.9363,-0.0010986328125,0.11859130859375,0.0281982421875,-0.6412213740458015,-3.900763358778626,-0.8015267175572519
1646443393362.5242,-0.00152587890625,0.1190185546875,0.0279541015625,-0.8244274809160306,-4.221374045801527,-0.9236641221374046
1646443393378.0864,0.0,0.1219482421875,0.01849365234375,-0.931297709923664,-4.297709923664122,-0.9389312977099236
1646443393393.8242,-0.00299072265625,0.12200927734375,0.029296875,-0.3587786259541984,-3.5801526717557253,-0.931297709923664
1646443393409.8074,-0.0029296875,0.12249755859375,0.01690673828125,-0.8702290076335878,-3.83206106870229,-0.916030534351145
1646443393426.323,-0.0020751953125,0.12213134765625,0.020263671875,-0.4274809160305343,-3.2900763358778624,-0.7480916030534351
1646443393442.6091,-0.0018310546875,0.1214599609375,0.02093505859375,-0.465648854961832,-3.473282442748092,-0.7175572519083969
1646443393458.9067,0.00115966796875,0.11968994140625,0.0247802734375,-0.5572519083969466,-3.213740458015267,-0.7251908396946565
1646443393475.3936,-0.0020751953125,0.1217041015625,0.02032470703125,-0.465648854961832,-3.366412213740458,-0.7480916030534351
1646443393491.7422,-0.00048828125,0.1201171875,0.02362060546875,-0.3893129770992366,-3.2900763358778624,-0.8015267175572519
1646443393508.3604,-0.000732421875,0.1204833984375,0.02410888671875,-0.3358778625954198,-3.4198473282442747,-0.7938931297709924
1646443393523.9485,-0.00146484375,0.12091064453125,0.0247802734375,-0.3511450381679389,-3.534351145038168,-0.8625954198473282
1646443393539.563,-0.00189208984375,0.12359619140625,0.0228271484375,-0.4274809160305343,-3.49618320610687,-0.8702290076335878
1646443393555.3428,6.103515625e-05,0.122802734375,0.021728515625,-0.648854961832061,-3.8091603053435112,-0.9389312977099236
1646443393570.8953,-0.001953125,0.12261962890625,0.024658203125,-0.5725190839694656,-3.5572519083969465,-0.8091603053435115
1646443393586.6353,0.00042724609375,0.11968994140625,0.0330810546875,-0.4198473282442748,-3.7480916030534353,-0.8702290076335878
1646443393602.1477,-0.0009765625,0.12115478515625,0.01947021484375,0.015267175572519,-4.00763358778626,-0.931297709923664
1646443393618.4517,0.00054931640625,0.12176513671875,0.0264892578125,-0.1374045801526717,-4.183206106870229,-0.900763358778626
1646443393635.01,-0.00152587890625,0.1236572265625,0.0201416015625,-0.1984732824427481,-4.519083969465649,-0.8854961832061069
1646443393651.2932,-0.00390625,0.12255859375,0.01666259765625,0.1068702290076335,-4.618320610687023,-0.9465648854961832
1646443393667.7483,-0.0015869140625,0.1226806640625,0.02197265625,-0.3435114503816794,-4.236641221374046,-0.9083969465648856
1646443393684.0396,-0.00115966796875,0.1199951171875,0.02362060546875,0.0,-3.67175572519084,-0.8549618320610687
1646443393700.3228,0.00054931640625,0.1231689453125,0.0179443359375,-0.3587786259541984,-3.8396946564885495,-0.8625954198473282
1646443393716.4556,-0.00115966796875,0.123291015625,0.01629638671875,-0.1450381679389313,-3.66412213740458,-0.8015267175572519
1646443393732.0603,0.001220703125,0.1221923828125,0.02197265625,-0.5267175572519084,-3.7786259541984735,-0.7480916030534351
1646443393747.8245,-0.00048828125,0.1197509765625,0.0263671875,-0.0839694656488549,-3.717557251908397,-0.7938931297709924
1646443393763.403,0.00042724609375,0.11968994140625,0.03009033203125,-0.2442748091603053,-3.8091603053435112,-0.8015267175572519
1646443393779.132,-0.00115966796875,0.12060546875,0.0283203125,-0.1755725190839694,-3.801526717557252,-0.8625954198473282
1646443393794.7507,-0.0020751953125,0.11907958984375,0.02142333984375,-0.3053435114503817,-3.8396946564885495,-0.8244274809160306
1646443393810.6392,0.00177001953125,0.12066650390625,0.02825927734375,-0.4351145038167939,-3.7099236641221376,-0.8244274809160306
1646443393827.1423,-0.0023193359375,0.120361328125,0.01971435546875,-0.4580152671755725,-3.84732824427481,-0.8625954198473282
1646443393843.4243,-0.003173828125,0.11956787109375,0.02166748046875,-0.5343511450381679,-3.5572519083969465,-0.8778625954198473
1646443393859.8848,-0.001953125,0.1199951171875,0.01739501953125,-0.4580152671755725,-3.381679389312977,-0.8702290076335878
1646443393876.2598,-0.00390625,0.1187744140625,0.0242919921875,-0.5725190839694656,-3.053435114503817,-0.8015267175572519
1646443393892.564,0.000244140625,0.12188720703125,0.01861572265625,-0.8091603053435115,-2.786259541984733,-0.6946564885496184
1646443393909.278,-0.002197265625,0.12213134765625,0.0206298828125,-0.6030534351145038,-2.564885496183206,-0.7404580152671756
1646443393924.861,-0.00238037109375,0.12225341796875,0.02130126953125,-0.7633587786259542,-2.4656488549618323,-0.7557251908396947
1646443393940.5818,0.00238037109375,0.12225341796875,0.02069091796875,-0.8931297709923665,-2.595419847328244,-0.7557251908396947
1646443393956.182,0.000732421875,0.120849609375,0.0294189453125,-0.931297709923664,-2.763358778625954,-0.7557251908396947
1646443393971.743,-0.0006103515625,0.1173095703125,0.025146484375,-0.9083969465648856,-3.015267175572519,-0.8854961832061069
1646443393987.442,0.0006103515625,0.12127685546875,0.0247802734375,-1.0534351145038168,-3.137404580152672,-0.9465648854961832
1646443394003.0295,-0.0008544921875,0.12115478515625,0.02166748046875,-0.9694656488549618,-3.1297709923664123,-0.9465648854961832
1646443394019.4548,-0.0035400390625,0.12188720703125,0.025146484375,-0.7099236641221374,-2.938931297709924,-0.900763358778626
1646443394035.7383,0.000732421875,0.12054443359375,0.01947021484375,-0.6183206106870229,-2.877862595419847,-0.8320610687022901
1646443394052.009,-0.00244140625,0.11627197265625,0.02935791015625,-0.6946564885496184,-2.8931297709923665,-0.8244274809160306
1646443394068.4688,-0.0018310546875,0.12188720703125,0.02923583984375,-0.5572519083969466,-2.83206106870229,-0.7938931297709924
1646443394084.735,-0.00146484375,0.12066650390625,0.02032470703125,-0.6106870229007634,-2.9083969465648853,-0.7480916030534351
1646443394101.2085,-0.0018310546875,0.11932373046875,0.027587890625,-0.5038167938931297,-3.282442748091603,-0.8091603053435115
1646443394117.264,0.00164794921875,0.121826171875,0.0283203125,-0.5114503816793893,-3.442748091603053,-0.8625954198473282
1646443394132.8247,-0.0015869140625,0.12042236328125,0.0252685546875,-0.2900763358778626,-3.4198473282442747,-0.8091603053435115
1646443394148.5764,-0.0020751953125,0.12432861328125,0.024169921875,-0.183206106870229,-3.473282442748092,-0.7862595419847328
1646443394164.1487,-0.00262451171875,0.12091064453125,0.029052734375,-0.2519083969465648,-3.66412213740458,-0.8396946564885496
1646443394179.9138,-0.00201416015625,0.11737060546875,0.02850341796875,-0.2519083969465648,-3.49618320610687,-0.8015267175572519
1646443394195.5232,-0.00164794921875,0.11895751953125,0.02001953125,-0.1679389312977099,-3.49618320610687,-0.7709923664122137
1646443394211.203,-0.00140380859375,0.1212158203125,0.0341796875,-0.1526717557251908,-3.3893129770992365,-0.816793893129771
1646443394227.89,-0.000244140625,0.1209716796875,0.02850341796875,0.0,-3.4885496183206106,-0.816793893129771
1646443394244.1653,-0.00347900390625,0.12066650390625,0.020751953125,0.0610687022900763,-3.381679389312977,-0.8015267175572519
1646443394260.7898,-0.00128173828125,0.122314453125,0.022216796875,0.1374045801526717,-3.015267175572519,-0.7709923664122137
1646443394277.0908,-0.000244140625,0.12060546875,0.0208740234375,-0.2137404580152671,-3.16793893129771,-0.7938931297709924
1646443394293.3772,-0.00030517578125,0.119873046875,0.02728271484375,-0.0839694656488549,-3.068702290076336,-0.816793893129771
1646443394309.9197,-0.002685546875,0.12054443359375,0.0211181640625,-0.0916030534351145,-3.106870229007633,-0.7709923664122137
1646443394325.803,-0.00311279296875,0.12115478515625,0.0257568359375,-0.0534351145038167,-3.0,-0.6946564885496184
1646443394341.5544,-0.00115966796875,0.1199951171875,0.01763916015625,-0.3511450381679389,-3.175572519083969,-0.6946564885496184
1646443394357.1284,-0.00048828125,0.12152099609375,0.02874755859375,-0.3435114503816794,-3.099236641221374,-0.6946564885496184
1646443394372.724,0.00225830078125,0.11932373046875,0.02935791015625,-0.4961832061068702,-3.3053435114503817,-0.8015267175572519
1646443394388.4822,0.0015869140625,0.11932373046875,0.02838134765625,-0.4274809160305343,-3.442748091603053,-0.8778625954198473
1646443394404.0662,-0.00048828125,0.12042236328125,0.02392578125,-0.5725190839694656,-3.549618320610687,-0.8778625954198473
1646443394420.458,-0.00146484375,0.11956787109375,0.0325927734375,-0.3129770992366412,-3.1603053435114505,-0.8549618320610687
1646443394436.8245,-0.00048828125,0.12017822265625,0.02044677734375,-0.7099236641221374,-3.3206106870229006,-0.8549618320610687
1646443394453.159,-0.0001220703125,0.1212158203125,0.02490234375,-0.2900763358778626,-2.900763358778626,-0.7938931297709924
1646443394469.6504,-0.0029296875,0.12176513671875,0.0225830078125,-0.4580152671755725,-2.885496183206107,-0.6870229007633588
1646443394485.9531,-0.00177001953125,0.12158203125,0.024658203125,-0.4732824427480916,-2.854961832061069,-0.6641221374045801
1646443394502.4656,-0.00225830078125,0.1197509765625,0.0203857421875,-0.366412213740458,-2.7709923664122136,-0.7099236641221374
1646443394518.7517,-0.00244140625,0.12152099609375,0.0205078125,-0.3587786259541984,-2.648854961832061,-0.7251908396946565
1646443394534.359,-0.001953125,0.1209716796875,0.0262451171875,-0.4503816793893129,-2.534351145038168,-0.6946564885496184
1646443394550.115,-0.00213623046875,0.12078857421875,0.01898193359375,-0.3740458015267175,-2.549618320610687,-0.6564885496183206
1646443394565.6765,0.00042724609375,0.11962890625,0.02569580078125,-0.4961832061068702,-2.6793893129771,-0.7251908396946565
1646443394581.4048,-0.000732421875,0.12127685546875,0.01885986328125,-0.4351145038167939,-2.916030534351145,-0.8396946564885496
1646443394596.973,-0.00030517578125,0.1214599609375,0.02496337890625,-0.4503816793893129,-3.0916030534351147,-0.8549618320610687
1646443394612.6772,-0.0042724609375,0.1202392578125,0.02197265625,-0.2061068702290076,-3.030534351145038,-0.7480916030534351
1646443394629.2976,-0.00384521484375,0.119384765625,0.0260009765625,-0.3206106870229007,-3.0381679389312977,-0.5877862595419847
1646443394645.6348,-0.00372314453125,0.1207275390625,0.01434326171875,-0.4732824427480916,-2.954198473282443,-0.6259541984732825
1646443394662.1,-0.001220703125,0.12103271484375,0.017333984375,-0.4427480916030534,-2.8091603053435112,-0.6793893129770993
1646443394678.412,0.0,0.1199951171875,0.02685546875,-0.6030534351145038,-3.0229007633587788,-0.816793893129771
1646443394694.678,-0.000732421875,0.12237548828125,0.021728515625,-0.3740458015267175,-2.938931297709924,-0.7786259541984732
1646443394711.185,-0.00262451171875,0.12158203125,0.025390625,-0.4809160305343511,-2.5801526717557253,-0.6793893129770993
1646443394726.861,-0.0048828125,0.11871337890625,0.018798828125,-0.3435114503816794,-2.603053435114504,-0.7022900763358778
1646443394742.5583,-0.00091552734375,0.1204833984375,0.02508544921875,-0.549618320610687,-2.519083969465649,-0.7633587786259542
1646443394758.097,-0.00048828125,0.1212158203125,0.0225830078125,-0.4809160305343511,-2.480916030534351,-0.7938931297709924
1646443394773.894,-0.0009765625,0.1224365234375,0.023681640625,-0.4809160305343511,-2.3969465648854964,-0.7099236641221374
1646443394789.4702,-0.00213623046875,0.120849609375,0.02081298828125,-0.4732824427480916,-2.381679389312977,-0.6946564885496184
1646443394805.04,-0.00390625,0.1214599609375,0.020263671875,-0.6030534351145038,-2.099236641221374,-0.5954198473282443
1646443394821.2966,-0.0020751953125,0.1202392578125,0.02325439453125,-0.6564885496183206,-1.83206106870229,-0.5267175572519084
1646443394837.6108,0.000732421875,0.12225341796875,0.0233154296875,-0.5954198473282443,-1.748091603053435,-0.5648854961832062
1646443394854.0964,0.00042724609375,0.12176513671875,0.0263671875,-0.4351145038167939,-1.702290076335878,-0.6106870229007634
1646443394870.4036,0.00115966796875,0.12139892578125,0.024658203125,-0.2061068702290076,-1.923664122137405,-0.6946564885496184
1646443394886.7368,0.00152587890625,0.12164306640625,0.0213623046875,0.0,-2.450381679389313,-0.816793893129771
1646443394903.238,0.0015869140625,0.1231689453125,0.02056884765625,-0.0076335877862595,-2.6946564885496183,-0.8473282442748091
1646443394919.4949,-0.00201416015625,0.12139892578125,0.02099609375,-0.1145038167938931,-2.6793893129771,-0.7633587786259542
1646443394935.2068,-0.004150390625,0.1217041015625,0.02020263671875,-0.015267175572519,-2.442748091603053,-0.6717557251908397
1646443394950.7805,-0.0032958984375,0.12158203125,0.01861572265625,-0.1526717557251908,-1.984732824427481,-0.549618320610687
1646443394966.3398,-0.0020751953125,0.1214599609375,0.01617431640625,-0.4732824427480916,-1.900763358778626,-0.6183206106870229
1646443394982.0632,0.00152587890625,0.12078857421875,0.02777099609375,-0.5267175572519084,-1.870229007633588,-0.7175572519083969
1646443394997.62,6.103515625e-05,0.1217041015625,0.020751953125,-0.3435114503816794,-2.0610687022900764,-0.7709923664122137
1646443395013.379,-0.00042724609375,0.1214599609375,0.02142333984375,-0.2213740458015267,-2.427480916030534,-0.7786259541984732
1646443395029.903,-0.0032958984375,0.120849609375,0.02032470703125,-0.5190839694656488,-2.618320610687023,-0.7251908396946565
1646443395046.2476,-0.00238037109375,0.1214599609375,0.017333984375,-0.4809160305343511,-2.33587786259542,-0.6412213740458015
1646443395062.7463,-0.0010986328125,0.1190185546875,0.02093505859375,-0.8320610687022901,-2.068702290076336,-0.5801526717557252
1646443395079.0386,-0.0008544921875,0.12158203125,0.02789306640625,-0.5877862595419847,-1.83206106870229,-0.5954198473282443
1646443395095.5166,-0.0015869140625,0.12109375,0.02191162109375,-0.3206106870229007,-1.954198473282443,-0.5801526717557252
1646443395113.1008,-0.00189208984375,0.122802734375,0.02545166015625,-0.3435114503816794,-2.198473282442748,-0.5954198473282443
1646443395128.7974,0.00079345703125,0.12115478515625,0.02069091796875,-0.3969465648854962,-2.3053435114503817,-0.6183206106870229
1646443395144.578,0.00177001953125,0.1220703125,0.021728515625,-0.5114503816793893,-2.8091603053435112,-0.7709923664122137
1646443395160.168,-0.00115966796875,0.1219482421875,0.0263671875,0.0534351145038167,-2.786259541984733,-0.7862595419847328
1646443395175.9036,-0.002197265625,0.12139892578125,0.01763916015625,-0.183206106870229,-2.8244274809160306,-0.6946564885496184
1646443395191.4426,-0.00250244140625,0.12091064453125,0.019287109375,-0.1908396946564885,-2.381679389312977,-0.5954198473282443
1646443395206.9773,-0.00396728515625,0.1221923828125,0.01861572265625,-0.4809160305343511,-2.106870229007633,-0.5725190839694656
1646443395223.3362,-0.00079345703125,0.12078857421875,0.0284423828125,-0.6106870229007634,-1.847328244274809,-0.6183206106870229
1646443395239.5977,-0.00445556640625,0.11968994140625,0.0223388671875,-0.648854961832061,-1.862595419847328,-0.5343511450381679
1646443395256.1436,-0.00494384765625,0.1201171875,0.02252197265625,-0.6717557251908397,-1.2900763358778626,-0.3587786259541984
1646443395272.5369,-0.00213623046875,0.1212158203125,0.02105712890625,-0.8549618320610687,-1.1450381679389312,-0.3053435114503817
1646443395288.8557,-0.00042724609375,0.1201171875,0.02685546875,-0.8473282442748091,-1.1603053435114503,-0.366412213740458
1646443395305.307,0.00103759765625,0.12127685546875,0.0201416015625,-0.6946564885496184,-1.083969465648855,-0.465648854961832
1646443395321.6333,-0.00067138671875,0.12109375,0.02398681640625,-0.6183206106870229,-1.2748091603053435,-0.5725190839694656
1646443395337.3936,-0.00042724609375,0.120849609375,0.0252685546875,-0.5572519083969466,-1.4885496183206106,-0.6717557251908397
1646443395353.0122,-0.000732421875,0.1217041015625,0.02569580078125,-0.4580152671755725,-1.8778625954198476,-0.7099236641221374
1646443395368.5615,6.103515625e-05,0.1220703125,0.026123046875,-0.2748091603053435,-2.534351145038168,-0.8015267175572519
1646443395384.3357,-0.00079345703125,0.1209716796875,0.02117919921875,0.0534351145038167,-2.862595419847328,-0.8015267175572519
1646443395399.8904,-0.00360107421875,0.1173095703125,0.0235595703125,0.2366412213740458,-2.816793893129771,-0.6641221374045801
1646443395415.583,-0.00335693359375,0.12091064453125,0.02203369140625,-0.2748091603053435,-2.5114503816793894,-0.5419847328244275
1646443395432.0337,-0.00030517578125,0.119140625,0.02386474609375,-0.5267175572519084,-2.633587786259542,-0.5343511450381679
1646443395448.3137,0.00213623046875,0.12115478515625,0.0316162109375,-0.2748091603053435,-3.603053435114504,-0.6641221374045801
1646443395464.749,-0.0001220703125,0.12054443359375,0.02685546875,0.1984732824427481,-4.114503816793893,-0.7938931297709924
1646443395481.038,0.00018310546875,0.121826171875,0.02667236328125,0.099236641221374,-3.4122137404580157,-0.7022900763358778
1646443395497.4993,-0.00152587890625,0.12109375,0.01446533203125,-0.2519083969465648,-3.5877862595419847,-0.7480916030534351
1646443395513.844,-0.00384521484375,0.12213134765625,0.0179443359375,-0.2213740458015267,-2.854961832061069,-0.6946564885496184
1646443395529.8276,-0.0020751953125,0.119873046875,0.01983642578125,-0.2366412213740458,-2.0839694656488548,-0.6564885496183206
1646443395545.565,-0.00274658203125,0.120361328125,0.01690673828125,-0.2748091603053435,-1.5572519083969465,-0.6335877862595419
1646443395561.0928,-0.00213623046875,0.12164306640625,0.011962890625,-0.8091603053435115,-0.9770992366412212,-0.5572519083969466
1646443395576.8477,0.00152587890625,0.12127685546875,0.0228271484375,-0.4503816793893129,-0.9618320610687024,-0.5954198473282443
1646443395592.399,0.0032958984375,0.12152099609375,0.0279541015625,-0.5267175572519084,-1.4732824427480915,-0.7404580152671756
1646443395607.9214,0.0003662109375,0.12109375,0.02294921875,-0.4961832061068702,-2.0381679389312977,-0.816793893129771
1646443395624.0625,-0.005126953125,0.12139892578125,0.02276611328125,-0.3206106870229007,-1.633587786259542,-0.6717557251908397
1646443395640.3442,0.00079345703125,0.11846923828125,0.02001953125,0.015267175572519,0.2213740458015267,-0.3129770992366412
1646443395656.896,-0.00079345703125,0.12322998046875,0.017822265625,-0.732824427480916,-1.1984732824427482,-0.465648854961832
1646443395673.1982,0.000244140625,0.11956787109375,0.0230712890625,-0.5648854961832062,-1.3206106870229009,-0.5343511450381679
1646443395689.4968,0.001953125,0.1224365234375,0.02288818359375,-0.2900763358778626,-1.6641221374045805,-0.6641221374045801
1646443395705.9988,-0.00030517578125,0.12115478515625,0.02679443359375,-0.0305343511450381,-1.6870229007633588,-0.6641221374045801
1646443395722.446,-6.103515625e-05,0.12139892578125,0.0223388671875,-0.1603053435114503,-2.3053435114503817,-0.6870229007633588
1646443395738.1477,-0.0025634765625,0.12054443359375,0.02490234375,-0.2748091603053435,-2.0839694656488548,-0.5954198473282443
1646443395753.931,-0.0001220703125,0.1219482421875,0.01544189453125,-0.1984732824427481,-2.16793893129771,-0.6259541984732825
1646443395769.5442,-0.0015869140625,0.1221923828125,0.01824951171875,-0.4274809160305343,-2.2595419847328246,-0.6183206106870229
1646443395785.3242,-0.00115966796875,0.12176513671875,0.0186767578125,-0.4045801526717557,-2.145038167938931,-0.6564885496183206
1646443395800.8892,0.0001220703125,0.12225341796875,0.01885986328125,-0.6030534351145038,-2.145038167938931,-0.6335877862595419
1646443395816.607,0.00299072265625,0.12158203125,0.02520751953125,-0.366412213740458,-2.717557251908397,-0.6946564885496184
1646443395832.6975,0.00091552734375,0.1224365234375,0.0252685546875,-0.1679389312977099,-3.236641221374046,-0.7404580152671756
1646443395848.9807,-0.0008544921875,0.1219482421875,0.01715087890625,-0.2748091603053435,-3.3282442748091605,-0.6641221374045801
1646443395865.5305,-0.00299072265625,0.12109375,0.0174560546875,-0.3511450381679389,-3.3435114503816794,-0.6717557251908397
1646443395881.874,-0.004150390625,0.11981201171875,0.01947021484375,-0.3053435114503817,-2.862595419847328,-0.7022900763358778
1646443395898.3364,-0.00360107421875,0.1197509765625,0.015869140625,-0.5725190839694656,-2.16793893129771,-0.6412213740458015
1646443395914.6062,-0.00311279296875,0.12200927734375,0.01812744140625,-0.8396946564885496,-1.748091603053435,-0.5725190839694656
1646443395930.8372,-0.00115966796875,0.1220703125,0.0211181640625,-0.8244274809160306,-1.5572519083969465,-0.5801526717557252
1646443395946.3926,0.002197265625,0.12261962890625,0.0224609375,-0.6641221374045801,-1.6641221374045805,-0.6564885496183206
1646443395961.9485,0.0008544921875,0.1220703125,0.018798828125,-0.6412213740458015,-1.5877862595419847,-0.6793893129770993
1646443395977.651,-0.00201416015625,0.1226806640625,0.02044677734375,-0.6412213740458015,-1.9083969465648856,-0.7022900763358778
1646443395993.2056,-0.0018310546875,0.12091064453125,0.02056884765625,-0.5954198473282443,-1.847328244274809,-0.6106870229007634
1646443396008.864,-0.00384521484375,0.12115478515625,0.0166015625,-0.6412213740458015,-1.916030534351145,-0.5725190839694656
1646443396024.793,-0.0029296875,0.120361328125,0.019287109375,-0.7251908396946565,-1.6106870229007633,-0.5190839694656488
1646443396041.0715,-0.00286865234375,0.1221923828125,0.01751708984375,-0.3206106870229007,-0.6412213740458015,-0.3969465648854962
1646443396057.598,-0.0013427734375,0.1219482421875,0.020263671875,-0.5419847328244275,-0.9618320610687024,-0.4198473282442748
1646443396073.868,-0.00238037109375,0.1220703125,0.01934814453125,-0.3435114503816794,-0.8091603053435115,-0.3816793893129771
1646443396090.3413,-0.000732421875,0.12091064453125,0.0213623046875,-0.7099236641221374,-1.2061068702290076,-0.4809160305343511
1646443396106.5989,0.004150390625,0.12255859375,0.02508544921875,-0.648854961832061,-2.0,-0.7251908396946565
1646443396123.0374,0.00177001953125,0.1236572265625,0.02618408203125,-0.3511450381679389,-2.49618320610687,-0.7480916030534351
1646443396138.7544,-0.00238037109375,0.12115478515625,0.018798828125,0.1908396946564885,-2.366412213740458,-0.7404580152671756
1646443396154.371,-0.00421142578125,0.12115478515625,0.017578125,-0.0610687022900763,-2.450381679389313,-0.6946564885496184
1646443396170.0872,-0.00439453125,0.12060546875,0.015625,-0.1984732824427481,-1.7557251908396947,-0.6183206106870229
1646443396185.6404,-0.0052490234375,0.11993408203125,0.01483154296875,-0.5267175572519084,-1.2595419847328244,-0.5190839694656488
1646443396201.1782,-0.00244140625,0.12139892578125,0.020751953125,-0.6717557251908397,-0.8244274809160306,-0.4122137404580153
1646443396216.9092,0.0013427734375,0.12188720703125,0.0250244140625,-0.4961832061068702,-1.1374045801526718,-0.4503816793893129
1646443396232.9988,0.0015869140625,0.12225341796875,0.0250244140625,-0.1984732824427481,-1.6946564885496185,-0.5114503816793893
1646443396249.614,-0.002197265625,0.11993408203125,0.02099609375,-0.2824427480916031,-1.8778625954198476,-0.5572519083969466
1646443396265.8987,-0.00506591796875,0.11981201171875,0.01690673828125,-0.3206106870229007,-1.3511450381679388,-0.5038167938931297
1646443396282.2314,-0.00213623046875,0.1229248046875,0.0242919921875,-0.9389312977099236,-1.236641221374046,-0.4122137404580153
1646443396298.753,-0.00372314453125,0.1187744140625,0.0340576171875,-0.816793893129771,-1.2213740458015268,-0.4122137404580153
1646443396315.059,-0.0006103515625,0.12115478515625,0.02191162109375,-0.6183206106870229,-1.0534351145038168,-0.4580152671755725
1646443396331.3804,-0.0013427734375,0.122314453125,0.0205078125,-0.5877862595419847,-0.7709923664122137,-0.3816793893129771
1646443396346.9126,-0.0037841796875,0.12115478515625,0.02239990234375,-0.4122137404580153,-0.6030534351145038,-0.366412213740458
1646443396362.4817,-0.00677490234375,0.12078857421875,0.02362060546875,-0.549618320610687,-0.1755725190839694,-0.2595419847328244
1646443396378.182,0.00054931640625,0.12115478515625,0.0245361328125,-0.6335877862595419,0.0305343511450381,-0.1908396946564885
1646443396393.777,-0.00164794921875,0.123046875,0.02520751953125,-0.1908396946564885,0.4427480916030534,-0.1068702290076335
1646443396409.4517,-0.00274658203125,0.1220703125,0.024169921875,0.1755725190839694,0.3740458015267175,-0.0687022900763358
1646443396425.265,0.00244140625,0.1221923828125,0.02545166015625,0.4732824427480916,0.6030534351145038,-0.0305343511450381
1646443396441.4426,0.0035400390625,0.120361328125,0.0225830078125,0.6641221374045801,0.6870229007633588,-0.3816793893129771
1646443396457.7825,0.00299072265625,0.114501953125,0.0126953125,0.5114503816793893,0.9083969465648856,-0.7862595419847328
1646443396474.0054,0.00030517578125,0.11700439453125,0.00836181640625,-0.816793893129771,0.8778625954198473,-1.015267175572519
1646443396495.7483,-0.00946044921875,0.1207275390625,0.00933837890625,-1.6564885496183206,0.0610687022900763,-0.4045801526717557
1646443396512.0408,-0.0067138671875,0.11968994140625,0.01171875,-2.114503816793893,0.0687022900763358,0.183206106870229
1646443396528.29,-0.0018310546875,0.119384765625,0.01751708984375,-2.618320610687023,0.0839694656488549,0.366412213740458
1646443396544.6863,0.0089111328125,0.11669921875,0.027099609375,-1.8931297709923665,-0.8320610687022901,-0.2061068702290076
1646443396560.9128,0.00421142578125,0.12615966796875,0.02581787109375,-1.3511450381679388,-1.1526717557251909,-0.6717557251908397
1646443396577.32,0.00177001953125,0.1251220703125,0.0325927734375,0.0076335877862595,-1.6793893129770991,-0.9465648854961832
1646443396593.6416,0.00213623046875,0.1239013671875,0.0291748046875,0.549618320610687,-2.106870229007633,-0.8702290076335878
1646443396609.8418,0.00372314453125,0.12042236328125,0.0262451171875,0.7862595419847328,-2.900763358778626,-1.0
1646443396626.433,-0.0015869140625,0.12237548828125,0.02203369140625,0.9694656488549618,-2.954198473282443,-0.9618320610687024
1646443396641.9424,-0.00543212890625,0.12127685546875,0.01702880859375,0.7099236641221374,-2.3587786259541983,-0.8091603053435115
1646443396657.568,-0.00628662109375,0.1246337890625,0.0091552734375,0.3587786259541984,-1.8244274809160304,-0.6717557251908397
1646443396673.0747,-0.0045166015625,0.12200927734375,0.0169677734375,0.549618320610687,-1.1450381679389312,-0.4809160305343511
1646443396688.5542,-0.00408935546875,0.12225341796875,0.01861572265625,0.2595419847328244,-1.282442748091603,-0.2595419847328244
1646443396704.2166,-0.0028076171875,0.120849609375,0.01715087890625,-0.1603053435114503,-1.366412213740458,-0.1221374045801526
1646443396720.0771,-0.00140380859375,0.119140625,0.0166015625,-0.549618320610687,-1.3511450381679388,-0.1755725190839694
1646443396735.943,-0.00054931640625,0.1195068359375,0.01605224609375,-0.7862595419847328,-1.267175572519084,-0.2900763358778626
1646443396751.53,-0.0010986328125,0.12109375,0.01593017578125,-1.1221374045801529,-1.297709923664122,-0.3435114503816794
1646443396767.0813,-0.0015869140625,0.12139892578125,0.0201416015625,-1.3206106870229009,-1.3893129770992367,-0.4198473282442748
1646443396782.7932,-0.01007080078125,0.12188720703125,0.01629638671875,-1.045801526717557,-0.9465648854961832,-0.366412213740458
1646443396798.3215,-0.00140380859375,0.1220703125,0.022216796875,-1.2290076335877862,-1.4045801526717556,-0.4809160305343511
1646443396814.0027,-0.00115966796875,0.12255859375,0.0238037109375,-1.282442748091603,-1.450381679389313,-0.4580152671755725
1646443396829.611,-6.103515625e-05,0.12017822265625,0.0224609375,-1.015267175572519,-1.7404580152671756,-0.5267175572519084
1646443396845.116,0.00164794921875,0.12420654296875,0.0150146484375,-0.8320610687022901,-1.801526717557252,-0.5877862595419847
1646443396860.829,-0.00067138671875,0.12225341796875,0.022705078125,-0.7786259541984732,-1.931297709923664,-0.6183206106870229
1646443396876.3247,0.000732421875,0.1224365234375,0.01861572265625,-0.7786259541984732,-2.068702290076336,-0.5419847328244275
1646443396892.002,0.0,0.12384033203125,0.01702880859375,-0.5038167938931297,-1.9618320610687023,-0.5114503816793893
1646443396907.444,-0.00189208984375,0.1220703125,0.0206298828125,-0.1221374045801526,-1.7709923664122138,-0.4961832061068702
1646443396923.1067,-0.00048828125,0.12103271484375,0.02154541015625,-0.1679389312977099,-1.6793893129770991,-0.5038167938931297
1646443396938.6584,-0.0015869140625,0.12127685546875,0.0211181640625,-0.3282442748091603,-1.8549618320610688,-0.4885496183206106
1646443396954.1655,-0.00238037109375,0.122314453125,0.0189208984375,-0.4198473282442748,-1.748091603053435,-0.3893129770992366
1646443396969.8152,-0.00115966796875,0.12164306640625,0.021240234375,-0.3358778625954198,-1.5954198473282444,-0.3511450381679389
1646443396985.3718,-0.00152587890625,0.1219482421875,0.02117919921875,-0.2442748091603053,-1.465648854961832,-0.366412213740458
1646443397001.0193,0.000244140625,0.12115478515625,0.02239990234375,-0.1145038167938931,-1.3511450381679388,-0.4122137404580153
1646443397016.578,-0.00103759765625,0.12164306640625,0.0201416015625,-0.1755725190839694,-1.3893129770992367,-0.4580152671755725
1646443397032.5369,-0.0008544921875,0.12005615234375,0.01861572265625,-0.2900763358778626,-1.5267175572519085,-0.4580152671755725
1646443397048.9634,0.00347900390625,0.11553955078125,0.01629638671875,-0.6183206106870229,-1.9083969465648856,-0.7099236641221374
1646443397065.1824,-0.00225830078125,0.12603759765625,0.01544189453125,-1.1221374045801529,-2.2290076335877864,-0.7633587786259542
1646443397081.5615,0.000732421875,0.11773681640625,0.019287109375,-0.8625954198473282,-1.8244274809160304,-0.7099236641221374
1646443397097.8071,-0.00146484375,0.123779296875,0.018310546875,-1.251908396946565,-1.9923664122137408,-0.7862595419847328
1646443397114.0486,-0.00054931640625,0.1220703125,0.0164794921875,-1.3435114503816794,-1.931297709923664,-0.7480916030534351
1646443397130.7488,0.00091552734375,0.1231689453125,0.01800537109375,-1.1526717557251909,-2.2595419847328246,-0.816793893129771
1646443397146.2568,0.00201416015625,0.12030029296875,0.0252685546875,-0.931297709923664,-2.6106870229007635,-0.900763358778626
1646443397161.9275,0.00250244140625,0.1226806640625,0.02142333984375,-0.7404580152671756,-2.931297709923664,-0.9083969465648856
1646443397177.4253,-0.00213623046875,0.1229248046875,0.02374267578125,-0.2824427480916031,-3.0839694656488548,-0.8854961832061069
1646443397192.9363,-0.00421142578125,0.1221923828125,0.0218505859375,-0.2213740458015267,-3.0076335877862594,-0.7557251908396947
1646443397208.5903,-0.00250244140625,0.1220703125,0.01953125,-0.3740458015267175,-2.839694656488549,-0.6870229007633588
1646443397224.1484,-0.00103759765625,0.120849609375,0.02166748046875,-0.5572519083969466,-2.801526717557252,-0.6564885496183206
1646443397239.9175,-0.001953125,0.12176513671875,0.02032470703125,-0.3816793893129771,-2.572519083969466,-0.5801526717557252
1646443397255.4463,-0.002685546875,0.1219482421875,0.01934814453125,-0.1755725190839694,-2.206106870229008,-0.5419847328244275
1646443397270.9324,-0.001953125,0.120361328125,0.0203857421875,-0.3969465648854962,-2.137404580152672,-0.5267175572519084
1646443397286.6235,-0.00244140625,0.1219482421875,0.01654052734375,-0.4045801526717557,-2.198473282442748,-0.5343511450381679
1646443397302.1306,-0.0023193359375,0.12188720703125,0.020751953125,-0.4961832061068702,-1.9618320610687023,-0.4885496183206106
1646443397317.7654,-0.001953125,0.121826171875,0.02142333984375,-0.3893129770992366,-1.702290076335878,-0.4732824427480916
1646443397333.3086,-0.0001220703125,0.12115478515625,0.02203369140625,-0.4580152671755725,-1.6870229007633588,-0.5343511450381679
1646443397348.8335,0.000244140625,0.12017822265625,0.02288818359375,-0.465648854961832,-1.8396946564885497,-0.6106870229007634
1646443397364.5046,-0.0010986328125,0.1217041015625,0.0242919921875,-0.2290076335877862,-1.9465648854961832,-0.6946564885496184
1646443397380.0251,-0.001708984375,0.12164306640625,0.02301025390625,-0.3511450381679389,-1.984732824427481,-0.5190839694656488
1646443397395.7068,-0.00189208984375,0.12139892578125,0.02197265625,-0.3969465648854962,-2.1603053435114505,-0.5648854961832062
1646443397411.1426,-0.00030517578125,0.1202392578125,0.01910400390625,-0.5877862595419847,-2.2900763358778624,-0.6259541984732825
1646443397426.7068,-0.0023193359375,0.12310791015625,0.016357421875,-0.4503816793893129,-2.183206106870229,-0.648854961832061
1646443397442.4038,-0.00311279296875,0.1207275390625,0.02044677734375,-0.2748091603053435,-1.870229007633588,-0.6030534351145038
1646443397457.9138,-0.00250244140625,0.12017822265625,0.02301025390625,-0.4198473282442748,-1.8091603053435117,-0.6106870229007634
1646443397473.6675,0.00018310546875,0.12042236328125,0.02008056640625,-0.549618320610687,-2.1297709923664123,-0.6106870229007634
1646443397489.1838,0.000244140625,0.1212158203125,0.02276611328125,-0.6335877862595419,-2.5267175572519083,-0.648854961832061
1646443397504.725,-0.0015869140625,0.12176513671875,0.0245361328125,-0.3435114503816794,-2.66412213740458,-0.6564885496183206
1646443397520.3953,-0.0023193359375,0.1219482421875,0.02099609375,-0.4961832061068702,-2.6717557251908395,-0.5954198473282443
1646443397535.9312,-0.001953125,0.12042236328125,0.0234375,-0.6106870229007634,-2.7022900763358777,-0.5114503816793893
1646443397551.5776,-0.00213623046875,0.1214599609375,0.0181884765625,-0.6870229007633588,-2.633587786259542,-0.4580152671755725
1646443397567.106,0.00030517578125,0.1204833984375,0.01873779296875,-0.9083969465648856,-2.7709923664122136,-0.5343511450381679
1646443397582.5933,-0.001953125,0.122802734375,0.0194091796875,-0.6183206106870229,-2.854961832061069,-0.6335877862595419
1646443397598.3274,-0.00018310546875,0.1201171875,0.0250244140625,-0.465648854961832,-2.801526717557252,-0.6183206106870229
1646443397613.8516,-0.0006103515625,0.1202392578125,0.024658203125,-0.5114503816793893,-3.198473282442748,-0.6564885496183206
1646443397629.525,-0.0015869140625,0.1204833984375,0.01959228515625,-0.6259541984732825,-3.282442748091603,-0.7251908396946565
1646443397645.9736,0.00018310546875,0.12152099609375,0.01873779296875,-0.5343511450381679,-3.213740458015267,-0.7480916030534351
1646443397662.4622,-0.00201416015625,0.12188720703125,0.0155029296875,-0.3740458015267175,-3.2213740458015265,-0.7480916030534351
1646443397678.794,-0.00177001953125,0.1224365234375,0.0159912109375,-0.6870229007633588,-3.0610687022900764,-0.6793893129770993
1646443397695.081,-0.000732421875,0.122314453125,0.015380859375,-0.648854961832061,-3.0610687022900764,-0.6946564885496184
1646443397711.492,-0.00714111328125,0.12091064453125,0.0260009765625,-0.5190839694656488,-3.2900763358778624,-0.7709923664122137
1646443397727.7732,-0.00091552734375,0.12152099609375,0.02435302734375,-0.5877862595419847,-2.8931297709923665,-0.6870229007633588
1646443397743.9,-0.00189208984375,0.11962890625,0.025146484375,-0.2290076335877862,-2.66412213740458,-0.6412213740458015
1646443397759.4077,-0.00115966796875,0.11981201171875,0.02008056640625,-0.465648854961832,-2.83206106870229,-0.6030534351145038
1646443397774.954,-0.00054931640625,0.11962890625,0.01824951171875,-0.5572519083969466,-3.0916030534351147,-0.7480916030534351
1646443397790.6162,0.00238037109375,0.12103271484375,0.01556396484375,-0.732824427480916,-3.1297709923664123,-0.9770992366412212
1646443397806.15,-0.0009765625,0.12255859375,0.0225830078125,-0.6793893129770993,-3.2748091603053435,-0.916030534351145
1646443397821.8513,-0.00177001953125,0.12322998046875,0.017333984375,-0.6183206106870229,-3.366412213740458,-0.8091603053435115
1646443397837.346,-0.00079345703125,0.12091064453125,0.02606201171875,-0.2442748091603053,-3.015267175572519,-0.6946564885496184
1646443397852.8665,-0.00384521484375,0.118896484375,0.03076171875,-0.1221374045801526,-2.862595419847328,-0.7099236641221374
1646443397868.5107,-0.0006103515625,0.1207275390625,0.02972412109375,-0.1374045801526717,-2.5114503816793894,-0.7099236641221374
1646443397884.032,0.0001220703125,0.12152099609375,0.021484375,-0.3740458015267175,-2.740458015267176,-0.7175572519083969
1646443397899.7654,-0.00091552734375,0.1207275390625,0.02197265625,-0.4351145038167939,-2.7480916030534357,-0.7404580152671756
1646443397915.2788,-0.00091552734375,0.1214599609375,0.025146484375,-0.4961832061068702,-2.3969465648854964,-0.6793893129770993
1646443397930.8728,-0.00762939453125,0.119873046875,0.024169921875,-0.3206106870229007,-2.198473282442748,-0.6641221374045801
1646443397947.4705,-0.0009765625,0.12188720703125,0.01953125,-0.2442748091603053,-1.6870229007633588,-0.5572519083969466
1646443397963.7908,-0.0018310546875,0.1212158203125,0.02142333984375,-0.2137404580152671,-1.4885496183206106,-0.5114503816793893
1646443397980.1577,-0.0028076171875,0.12152099609375,0.01922607421875,-0.4045801526717557,-1.748091603053435,-0.4732824427480916
1646443397996.431,0.000244140625,0.120361328125,0.0205078125,-0.4427480916030534,-1.7557251908396947,-0.4274809160305343
1646443398012.7312,0.000244140625,0.119140625,0.0213623046875,-0.6259541984732825,-2.015267175572519,-0.5267175572519084
1646443398029.216,-0.000732421875,0.121826171875,0.01898193359375,-0.6412213740458015,-1.9770992366412212,-0.6183206106870229
1646443398045.2422,-0.0040283203125,0.12158203125,0.019287109375,-0.5725190839694656,-1.6564885496183206,-0.5877862595419847
1646443398060.9526,-0.00225830078125,0.1207275390625,0.02294921875,-0.7862595419847328,-1.5648854961832062,-0.4885496183206106
1646443398076.4875,-0.00262451171875,0.12139892578125,0.0181884765625,-0.5801526717557252,-1.6870229007633588,-0.3969465648854962
1646443398092.01,-0.00213623046875,0.12115478515625,0.0225830078125,-0.7633587786259542,-1.732824427480916,-0.3587786259541984
1646443398107.7258,-0.0003662109375,0.1214599609375,0.02081298828125,-0.6641221374045801,-2.106870229007633,-0.5267175572519084
1646443398123.25,-0.0018310546875,0.12078857421875,0.022216796875,-0.4961832061068702,-2.351145038167939,-0.6030534351145038
1646443398138.9058,-0.00030517578125,0.12188720703125,0.02386474609375,-0.4427480916030534,-2.3282442748091605,-0.5954198473282443
1646443398154.5576,-0.001708984375,0.12158203125,0.02044677734375,-0.3129770992366412,-2.877862595419847,-0.6106870229007634
1646443398170.14,0.0008544921875,0.12176513671875,0.01885986328125,-0.4122137404580153,-3.2290076335877864,-0.7099236641221374
1646443398185.8447,-0.00103759765625,0.12127685546875,0.0252685546875,-0.4580152671755725,-3.2290076335877864,-0.7938931297709924
1646443398201.3872,-0.0003662109375,0.1201171875,0.02294921875,-0.6793893129770993,-3.3587786259541983,-0.7938931297709924
1646443398217.0554,-0.00238037109375,0.120361328125,0.02972412109375,-0.3358778625954198,-3.2290076335877864,-0.732824427480916
1646443398232.6465,-0.00213623046875,0.1224365234375,0.0245361328125,-0.3282442748091603,-3.1908396946564888,-0.6946564885496184
1646443398248.181,-0.00311279296875,0.12158203125,0.0166015625,-0.6946564885496184,-3.3740458015267176,-0.7557251908396947
1646443398263.9272,-0.0020751953125,0.11846923828125,0.020751953125,-0.4198473282442748,-3.15267175572519,-0.8091603053435115
1646443398279.4717,-0.0018310546875,0.12353515625,0.0220947265625,-0.2748091603053435,-3.175572519083969,-0.8244274809160306
1646443398295.1667,0.0,0.12127685546875,0.020263671875,-0.5038167938931297,-3.2442748091603053,-0.7938931297709924
1646443398310.6746,-0.00360107421875,0.12274169921875,0.024658203125,-0.183206106870229,-2.7099236641221376,-0.6717557251908397
1646443398326.1672,-0.001708984375,0.12060546875,0.02227783203125,-0.4885496183206106,-2.6412213740458017,-0.5954198473282443
1646443398341.941,0.00054931640625,0.1217041015625,0.0181884765625,-0.2442748091603053,-2.5267175572519083,-0.6183206106870229
1646443398357.448,-0.0003662109375,0.1202392578125,0.02325439453125,-0.2366412213740458,-2.534351145038168,-0.6259541984732825
1646443398373.1758,-0.000732421875,0.1207275390625,0.0233154296875,-0.2519083969465648,-2.648854961832061,-0.6717557251908397
1646443398388.6917,0.0006103515625,0.1221923828125,0.01971435546875,-0.5038167938931297,-3.0381679389312977,-0.6793893129770993
1646443398404.3462,-0.00048828125,0.12109375,0.0220947265625,-0.5725190839694656,-3.213740458015267,-0.7251908396946565
1646443398419.8716,0.00048828125,0.12030029296875,0.0223388671875,-0.3435114503816794,-3.1908396946564888,-0.7557251908396947
1646443398435.371,-0.0006103515625,0.1229248046875,0.02032470703125,-0.3206106870229007,-3.122137404580153,-0.732824427480916
1646443398451.0957,-0.00189208984375,0.12152099609375,0.02386474609375,-0.2977099236641221,-3.3893129770992365,-0.7786259541984732
1646443398466.6648,-0.00152587890625,0.12261962890625,0.02239990234375,-0.2595419847328244,-3.351145038167939,-0.6641221374045801
1646443398482.3333,-0.00103759765625,0.12225341796875,0.02020263671875,-0.5267175572519084,-3.236641221374046,-0.5877862595419847
1646443398497.849,-0.00079345703125,0.12420654296875,0.01995849609375,-0.2748091603053435,-3.0229007633587788,-0.5419847328244275
1646443398513.3682,-0.0013427734375,0.12078857421875,0.02191162109375,-0.1374045801526717,-2.8473282442748094,-0.5343511450381679
1646443398529.0232,-0.00299072265625,0.121337890625,0.0205078125,-0.0916030534351145,-2.7938931297709924,-0.4809160305343511
1646443398544.5742,-0.00115966796875,0.12060546875,0.02056884765625,-0.2213740458015267,-2.648854961832061,-0.5114503816793893
1646443398560.3015,0.000732421875,0.12042236328125,0.01800537109375,-0.2824427480916031,-2.595419847328244,-0.6030534351145038
1646443398575.7922,0.00030517578125,0.1207275390625,0.0205078125,-0.3358778625954198,-2.5877862595419847,-0.6946564885496184
1646443398591.3462,0.0008544921875,0.12115478515625,0.0186767578125,-0.3969465648854962,-2.4656488549618323,-0.7633587786259542
1646443398607.0266,-0.001953125,0.1214599609375,0.01904296875,-0.3969465648854962,-2.0763358778625958,-0.7786259541984732
1646443398622.542,-0.00189208984375,0.1214599609375,0.01776123046875,-0.3740458015267175,-1.717557251908397,-0.7786259541984732
1646443398638.244,-0.00225830078125,0.122802734375,0.01751708984375,-0.3969465648854962,-1.4427480916030535,-0.7557251908396947
1646443398653.8083,-0.00146484375,0.1220703125,0.01983642578125,-0.3053435114503817,-1.2061068702290076,-0.7175572519083969
1646443398669.3438,-0.000732421875,0.1207275390625,0.0184326171875,-0.3969465648854962,-1.1908396946564883,-0.7709923664122137
1646443398685.023,-0.0029296875,0.1220703125,0.01849365234375,-0.4580152671755725,-0.9389312977099236,-0.7633587786259542
1646443398700.5117,-0.0015869140625,0.121826171875,0.02081298828125,-0.4045801526717557,-0.7862595419847328,-0.7709923664122137
1646443398716.1875,-0.00311279296875,0.121826171875,0.0185546875,-0.2748091603053435,-0.5572519083969466,-0.732824427480916
1646443398731.7087,-0.0028076171875,0.12213134765625,0.01904296875,-0.2442748091603053,-0.366412213740458,-0.6717557251908397
1646443398747.877,0.00079345703125,0.1214599609375,0.0218505859375,-0.2061068702290076,-0.3740458015267175,-0.7022900763358778
1646443398764.3696,-0.0008544921875,0.11944580078125,0.0205078125,-0.3816793893129771,-0.8549618320610687,-0.6793893129770993
1646443398780.6936,-0.00164794921875,0.12158203125,0.02001953125,-0.5267175572519084,-1.1755725190839694,-0.6793893129770993
1646443398797.1538,-0.00445556640625,0.12103271484375,0.0189208984375,-0.4198473282442748,-1.267175572519084,-0.4809160305343511
1646443398813.4287,-0.0025634765625,0.12249755859375,0.02203369140625,-0.3816793893129771,-1.282442748091603,-0.2671755725190839
1646443398829.725,-0.0010986328125,0.12054443359375,0.02130126953125,-0.5038167938931297,-1.450381679389313,-0.183206106870229
1646443398846.076,-0.00079345703125,0.12158203125,0.0206298828125,-0.5190839694656488,-1.4885496183206106,-0.1984732824427481
1646443398861.6042,-0.00018310546875,0.1209716796875,0.01995849609375,-0.6183206106870229,-1.633587786259542,-0.3206106870229007
1646443398877.3145,0.00128173828125,0.12060546875,0.022216796875,-0.3893129770992366,-1.3969465648854962,-0.5877862595419847
1646443398892.8374,0.000244140625,0.12158203125,0.021484375,-0.3435114503816794,-1.3969465648854962,-0.6946564885496184
1646443398908.362,-0.0032958984375,0.12213134765625,0.01611328125,-0.4732824427480916,-1.3282442748091603,-0.6412213740458015
1646443398924.0518,-0.00341796875,0.12176513671875,0.01904296875,-0.5267175572519084,-1.4122137404580153,-0.5114503816793893
1646443398939.55,-0.00213623046875,0.121337890625,0.0179443359375,-0.549618320610687,-1.2900763358778626,-0.4351145038167939
1646443398955.256,-0.00048828125,0.1209716796875,0.0191650390625,-0.5801526717557252,-1.1221374045801529,-0.465648854961832
1646443398970.8152,0.000732421875,0.12127685546875,0.019775390625,-0.5725190839694656,-1.1450381679389312,-0.549618320610687
1646443398986.3252,-0.00115966796875,0.12109375,0.0185546875,-0.6793893129770993,-1.236641221374046,-0.5725190839694656
1646443399002.0132,-0.00286865234375,0.1209716796875,0.0189208984375,-0.648854961832061,-1.282442748091603,-0.5419847328244275
1646443399017.5002,-0.00177001953125,0.12176513671875,0.01837158203125,-0.6641221374045801,-1.045801526717557,-0.5343511450381679
1646443399033.1929,6.103515625e-05,0.12139892578125,0.0205078125,-0.7938931297709924,-1.1374045801526718,-0.549618320610687
1646443399048.6924,-0.0010986328125,0.12164306640625,0.0203857421875,-0.7633587786259542,-1.297709923664122,-0.5954198473282443
1646443399064.263,-0.000732421875,0.1219482421875,0.0203857421875,-0.7404580152671756,-1.3587786259541983,-0.5954198473282443
1646443399079.9329,-0.00201416015625,0.1224365234375,0.02032470703125,-0.5648854961832062,-1.450381679389313,-0.5648854961832062
1646443399095.4812,0.000244140625,0.12152099609375,0.02081298828125,-0.6412213740458015,-1.6106870229007633,-0.5114503816793893
1646443399111.1458,-0.0018310546875,0.122314453125,0.0194091796875,-0.4503816793893129,-1.6641221374045805,-0.4885496183206106
1646443399126.7195,-0.00164794921875,0.1204833984375,0.02032470703125,-0.6183206106870229,-1.8854961832061068,-0.5572519083969466
1646443399142.313,-0.0006103515625,0.1209716796875,0.02349853515625,-0.6183206106870229,-1.923664122137405,-0.5877862595419847
1646443399158.817,-0.002197265625,0.12347412109375,0.02069091796875,-0.5801526717557252,-2.213740458015267,-0.5725190839694656
1646443399175.0889,-0.0020751953125,0.1199951171875,0.01751708984375,-0.6183206106870229,-2.2213740458015265,-0.549618320610687
1646443399191.535,-0.002197265625,0.121337890625,0.0208740234375,-0.5190839694656488,-2.1297709923664123,-0.5038167938931297
1646443399207.7766,-0.00103759765625,0.12060546875,0.02288818359375,-0.6717557251908397,-2.312977099236641,-0.5190839694656488
1646443399224.092,-0.0020751953125,0.12103271484375,0.021728515625,-0.3816793893129771,-2.282442748091603,-0.5419847328244275
1646443399240.693,-0.00042724609375,0.1204833984375,0.0208740234375,-0.5954198473282443,-2.2213740458015265,-0.6259541984732825
1646443399256.3018,-0.00201416015625,0.12200927734375,0.021240234375,-0.5267175572519084,-2.175572519083969,-0.6564885496183206
1646443399272.016,-0.00152587890625,0.121826171875,0.02178955078125,-0.5114503816793893,-2.206106870229008,-0.6641221374045801
1646443399287.469,-0.00286865234375,0.12322998046875,0.01861572265625,-0.4351145038167939,-1.9694656488549616,-0.6335877862595419
1646443399303.1567,-0.00103759765625,0.12109375,0.0206298828125,-0.4503816793893129,-1.7557251908396947,-0.6030534351145038
1646443399318.7046,-0.00091552734375,0.11895751953125,0.02008056640625,-0.4732824427480916,-1.862595419847328,-0.6259541984732825
1646443399334.2432,0.00048828125,0.12237548828125,0.02203369140625,-0.4580152671755725,-1.816793893129771,-0.6641221374045801
1646443399349.964,-0.0006103515625,0.12139892578125,0.0206298828125,-0.5267175572519084,-2.045801526717557,-0.6793893129770993
1646443399365.4868,-0.00164794921875,0.12030029296875,0.01934814453125,-0.4503816793893129,-2.0763358778625958,-0.6335877862595419
1646443399381.1511,-0.001953125,0.1199951171875,0.01904296875,-0.3969465648854962,-2.1603053435114505,-0.6259541984732825
1646443399396.6938,-0.0006103515625,0.1171875,0.02410888671875,-0.2595419847328244,-2.175572519083969,-0.6106870229007634
1646443399412.219,-0.00347900390625,0.123046875,0.02203369140625,-0.4274809160305343,-2.351145038167939,-0.6259541984732825
1646443399427.8848,-0.00091552734375,0.11871337890625,0.01922607421875,-0.3816793893129771,-2.312977099236641,-0.549618320610687
1646443399443.5254,-0.00244140625,0.11822509765625,0.02044677734375,-0.4198473282442748,-2.519083969465649,-0.5725190839694656
1646443399460.002,0.00042724609375,0.12322998046875,0.02264404296875,-0.5114503816793893,-2.572519083969466,-0.5267175572519084
1646443399476.327,-0.0015869140625,0.12109375,0.01953125,-0.7251908396946565,-2.8473282442748094,-0.6030534351145038
1646443399492.565,0.0025634765625,0.1192626953125,0.0218505859375,-0.1679389312977099,-2.66412213740458,-0.5725190839694656
1646443399509.0242,-0.00091552734375,0.12158203125,0.01947021484375,-0.7862595419847328,-2.7480916030534357,-0.6030534351145038
1646443399525.283,-0.00042724609375,0.12115478515625,0.0213623046875,-0.5801526717557252,-2.6946564885496183,-0.6183206106870229
1646443399541.774,-0.0003662109375,0.12286376953125,0.0177001953125,-0.5648854961832062,-2.6412213740458017,-0.6259541984732825
1646443399557.6377,-0.0020751953125,0.12127685546875,0.01513671875,-0.5877862595419847,-2.3893129770992365,-0.6641221374045801
1646443399573.171,-0.00146484375,0.11822509765625,0.018310546875,-0.5725190839694656,-2.3435114503816794,-0.6870229007633588
1646443399588.819,-0.002197265625,0.12139892578125,0.01568603515625,-0.5572519083969466,-2.282442748091603,-0.732824427480916
1646443399604.346,-0.00152587890625,0.1221923828125,0.02081298828125,-0.5877862595419847,-1.9465648854961832,-0.7022900763358778
1646443399619.9937,-0.002197265625,0.12127685546875,0.0186767578125,-0.2671755725190839,-1.6030534351145038,-0.7022900763358778
1646443399635.5305,-0.002685546875,0.1221923828125,0.0181884765625,-0.4274809160305343,-1.702290076335878,-0.7480916030534351
1646443399651.029,-0.00054931640625,0.12054443359375,0.02374267578125,-0.4427480916030534,-1.786259541984733,-0.7480916030534351
1646443399666.6982,-0.0009765625,0.1224365234375,0.02154541015625,-0.4274809160305343,-2.045801526717557,-0.7404580152671756
1646443399682.1787,-0.0001220703125,0.1234130859375,0.02252197265625,-0.2442748091603053,-1.8549618320610688,-0.7022900763358778
1646443399697.8818,-0.003173828125,0.12139892578125,0.01605224609375,-0.015267175572519,-2.1603053435114505,-0.6564885496183206
1646443399713.4104,0.0001220703125,0.1240234375,0.01788330078125,-0.2442748091603053,-2.442748091603053,-0.5954198473282443
1646443399728.9492,0.0,0.12310791015625,0.02008056640625,-0.2977099236641221,-2.7022900763358777,-0.648854961832061
1646443399744.724,-0.0009765625,0.1192626953125,0.02117919921875,-0.3740458015267175,-2.801526717557252,-0.6793893129770993
1646443399761.0522,-0.00140380859375,0.12506103515625,0.0179443359375,-0.5648854961832062,-3.0,-0.6870229007633588
1646443399777.5576,-0.00091552734375,0.12164306640625,0.0224609375,-0.3435114503816794,-3.030534351145038,-0.6793893129770993
1646443399793.815,-0.00140380859375,0.12109375,0.0216064453125,-0.6412213740458015,-3.068702290076336,-0.6335877862595419
1646443399810.0735,-0.0009765625,0.12615966796875,0.02496337890625,-0.6946564885496184,-3.3587786259541983,-0.6564885496183206
1646443399826.525,-0.00262451171875,0.11865234375,0.0234375,-0.3893129770992366,-3.0610687022900764,-0.648854961832061
1646443399842.7937,-0.00341796875,0.11932373046875,0.02081298828125,-0.5343511450381679,-3.206106870229008,-0.6946564885496184
1646443399858.8528,-0.00128173828125,0.12200927734375,0.02020263671875,-0.6030534351145038,-3.175572519083969,-0.7251908396946565
1646443399874.3948,-0.00543212890625,0.1197509765625,0.01953125,-0.3587786259541984,-2.954198473282443,-0.7099236641221374
1646443399889.861,-0.00103759765625,0.12200927734375,0.0238037109375,-0.7022900763358778,-2.816793893129771,-0.6793893129770993
1646443399905.5117,-0.001953125,0.12213134765625,0.02069091796875,-0.5954198473282443,-2.717557251908397,-0.6564885496183206
1646443399921.0068,-0.0035400390625,0.122314453125,0.02020263671875,-0.549618320610687,-2.564885496183206,-0.6335877862595419
1646443399936.66,-0.00054931640625,0.1201171875,0.02105712890625,-0.5954198473282443,-2.603053435114504,-0.6564885496183206
1646443399952.1924,-0.0045166015625,0.117919921875,0.02178955078125,-0.3816793893129771,-2.572519083969466,-0.6412213740458015
1646443399967.6226,-0.001953125,0.120849609375,0.024169921875,-0.5801526717557252,-2.427480916030534,-0.6335877862595419
1646443399983.2888,-0.0035400390625,0.1192626953125,0.01800537109375,-0.3587786259541984,-2.236641221374046,-0.648854961832061
1646443399998.7915,-0.0008544921875,0.12261962890625,0.02056884765625,-0.5190839694656488,-2.206106870229008,-0.6259541984732825
1646443400014.461,-0.0009765625,0.1197509765625,0.02386474609375,-0.4274809160305343,-2.1297709923664123,-0.6106870229007634
1646443400029.938,-0.00408935546875,0.1202392578125,0.0233154296875,-0.5267175572519084,-2.15267175572519,-0.6641221374045801
1646443400045.4622,-0.0001220703125,0.1241455078125,0.02227783203125,-0.4198473282442748,-2.114503816793893,-0.6641221374045801
1646443400062.0547,-0.00128173828125,0.1173095703125,0.0250244140625,-0.2137404580152671,-2.206106870229008,-0.6946564885496184
1646443400078.343,-0.001708984375,0.1212158203125,0.01824951171875,-0.2671755725190839,-2.49618320610687,-0.6870229007633588
1646443400094.8647,-0.002685546875,0.11993408203125,0.02227783203125,-0.5114503816793893,-2.6564885496183206,-0.7099236641221374
1646443400111.1594,-0.001708984375,0.12188720703125,0.015380859375,-0.3282442748091603,-3.068702290076336,-0.7404580152671756
1646443400127.4868,-0.0015869140625,0.12103271484375,0.0201416015625,-0.2748091603053435,-2.7938931297709924,-0.732824427480916
1646443400143.986,0.0,0.12255859375,0.0216064453125,-0.0687022900763358,-3.1297709923664123,-0.8091603053435115
1646443400159.7383,-0.00335693359375,0.12261962890625,0.01446533203125,-0.3358778625954198,-3.480916030534351,-0.7862595419847328
1646443400175.4463,0.0001220703125,0.12054443359375,0.0250244140625,-0.3511450381679389,-3.2442748091603053,-0.7022900763358778
1646443400190.9363,-0.0035400390625,0.122314453125,0.01483154296875,-0.2137404580152671,-3.3587786259541983,-0.7480916030534351
1646443400206.5857,-0.00177001953125,0.1229248046875,0.0213623046875,-0.7099236641221374,-3.50381679389313,-0.7251908396946565
1646443400222.0632,-0.00372314453125,0.11920166015625,0.02874755859375,-0.2442748091603053,-3.1908396946564888,-0.6335877862595419
1646443400237.5288,-0.00286865234375,0.12286376953125,0.0179443359375,-0.0458015267175572,-3.0229007633587788,-0.5725190839694656
1646443400253.2922,-0.0008544921875,0.1219482421875,0.0220947265625,-0.2061068702290076,-3.2595419847328246,-0.5801526717557252
1646443400268.7776,0.00030517578125,0.121826171875,0.01702880859375,-0.2290076335877862,-3.3893129770992365,-0.5725190839694656
1646443400284.4458,-0.002197265625,0.12054443359375,0.017822265625,-0.3969465648854962,-3.541984732824428,-0.5954198473282443
1646443400299.906,-0.000732421875,0.1209716796875,0.0228271484375,-0.6106870229007634,-3.5267175572519083,-0.6259541984732825
1646443400315.4507,-0.00201416015625,0.120849609375,0.02130126953125,-0.3435114503816794,-3.763358778625954,-0.6183206106870229
1646443400331.0813,-0.003662109375,0.1201171875,0.017578125,-0.2213740458015267,-3.4885496183206106,-0.549618320610687
1646443400346.5784,-0.00347900390625,0.12261962890625,0.014892578125,-0.2977099236641221,-3.312977099236641,-0.549618320610687
1646443400363.1248,-0.00140380859375,0.11956787109375,0.0169677734375,-1.045801526717557,-3.2290076335877864,-0.648854961832061
1646443400379.3967,-0.0009765625,0.12115478515625,0.02362060546875,-1.0534351145038168,-2.816793893129771,-0.7786259541984732
1646443400395.6558,-0.0048828125,0.12255859375,0.01171875,-1.3129770992366412,-2.946564885496183,-0.8015267175572519
1646443400412.0706,-0.00164794921875,0.1177978515625,0.0272216796875,-1.4274809160305344,-2.633587786259542,-0.6564885496183206
1646443400428.3257,-0.00164794921875,0.119384765625,0.0284423828125,-0.9465648854961832,-2.6946564885496183,-0.7022900763358778
1646443400444.719,0.0006103515625,0.11944580078125,0.031982421875,-0.8244274809160306,-2.984732824427481,-0.6412213740458015
1646443400460.5298,-0.0010986328125,0.12078857421875,0.0277099609375,-0.2748091603053435,-3.7786259541984735,-0.6717557251908397
1646443400476.075,-0.0001220703125,0.12213134765625,0.0242919921875,-0.4427480916030534,-4.00763358778626,-0.6641221374045801
1646443400491.803,-0.00048828125,0.1220703125,0.0177001953125,-0.3816793893129771,-4.450381679389313,-0.8320610687022901
1646443400507.2976,-0.00054931640625,0.124755859375,0.02056884765625,-0.1450381679389313,-4.564885496183206,-0.8931297709923665
1646443400522.983,-0.00079345703125,0.123291015625,0.02581787109375,-0.1908396946564885,-4.763358778625954,-0.8931297709923665
1646443400538.4844,0.000244140625,0.11981201171875,0.02410888671875,-0.2748091603053435,-5.114503816793893,-0.8473282442748091
1646443400553.9792,-0.00140380859375,0.1220703125,0.0220947265625,-0.3435114503816794,-5.435114503816794,-0.8778625954198473
1646443400569.6655,-0.0001220703125,0.11944580078125,0.0245361328125,-0.7480916030534351,-5.679389312977099,-0.8931297709923665
1646443400585.1453,-0.0001220703125,0.123779296875,0.02197265625,-0.0381679389312977,-5.396946564885496,-0.8931297709923665
1646443400600.8384,-0.001953125,0.1229248046875,0.02032470703125,-0.2061068702290076,-5.862595419847328,-0.900763358778626
1646443400616.3315,-0.00213623046875,0.12042236328125,0.01690673828125,-0.3511450381679389,-5.870229007633588,-0.8549618320610687
1646443400631.8594,-0.00274658203125,0.121826171875,0.02227783203125,-0.732824427480916,-6.312977099236641,-0.931297709923664
1646443400647.5112,-0.003662109375,0.12347412109375,0.02386474609375,-0.4732824427480916,-6.114503816793893,-0.9541984732824428
1646443400663.0557,-0.0020751953125,0.11981201171875,0.01806640625,-0.5343511450381679,-5.625954198473282,-0.9694656488549618
1646443400678.6958,-0.0042724609375,0.1241455078125,0.0162353515625,-0.1984732824427481,-5.396946564885496,-0.900763358778626
1646443400694.1758,-0.00225830078125,0.1224365234375,0.0128173828125,-0.6259541984732825,-5.618320610687023,-0.9923664122137404
1646443400709.652,0.0,0.122802734375,0.02301025390625,-0.1755725190839694,-5.015267175572519,-1.045801526717557
1646443400725.3477,-0.0040283203125,0.11932373046875,0.016845703125,-0.1603053435114503,-4.778625954198473,-1.0610687022900764
1646443400740.838,-0.00018310546875,0.124267578125,0.01385498046875,-0.5648854961832062,-4.5038167938931295,-0.9694656488549618
1646443400756.9905,-0.0035400390625,0.1204833984375,0.01165771484375,-0.3969465648854962,-4.67175572519084,-1.1068702290076335
1646443400773.2073,-0.00286865234375,0.11737060546875,0.02484130859375,-0.3129770992366412,-4.198473282442748,-0.9847328244274808
1646443400789.44,-0.0003662109375,0.11981201171875,0.0257568359375,-0.2595419847328244,-4.297709923664122,-0.931297709923664
1646443400805.8755,-0.00396728515625,0.12139892578125,0.0189208984375,-0.0763358778625954,-4.0458015267175576,-0.8625954198473282
1646443400822.1318,-0.0042724609375,0.12127685546875,0.01641845703125,-0.2519083969465648,-3.8396946564885495,-0.7862595419847328
1646443400838.5754,-0.00250244140625,0.11846923828125,0.0174560546875,-0.2519083969465648,-3.66412213740458,-0.7633587786259542
1646443400855.0437,-0.0020751953125,0.12261962890625,0.01873779296875,-0.6564885496183206,-3.7786259541984735,-0.8244274809160306
1646443400870.5425,-0.001708984375,0.1185302734375,0.01922607421875,-0.5419847328244275,-3.801526717557252,-0.8625954198473282
1646443400886.239,-0.0029296875,0.1219482421875,0.0189208984375,-0.1450381679389313,-3.351145038167939,-0.8244274809160306
1646443400901.766,-0.0003662109375,0.1221923828125,0.018310546875,-0.4274809160305343,-3.50381679389313,-0.816793893129771
1646443400917.43,-0.0050048828125,0.12274169921875,0.02410888671875,-0.0916030534351145,-3.282442748091603,-0.8396946564885496
1646443400932.9675,-0.00213623046875,0.1236572265625,0.0224609375,-0.4122137404580153,-3.2290076335877864,-0.8244274809160306
1646443400948.4548,-0.00360107421875,0.12188720703125,0.01953125,-0.0763358778625954,-3.015267175572519,-0.7557251908396947
1646443400964.176,-0.00299072265625,0.1209716796875,0.0201416015625,-0.015267175572519,-2.778625954198473,-0.7175572519083969
1646443400979.5884,-0.0045166015625,0.12103271484375,0.0206298828125,-0.1374045801526717,-2.4656488549618323,-0.5954198473282443
1646443400995.2903,-0.00262451171875,0.1195068359375,0.02032470703125,-0.2061068702290076,-2.145038167938931,-0.4732824427480916
1646443401010.815,0.00225830078125,0.11907958984375,0.0185546875,-0.5419847328244275,-2.381679389312977,-0.5877862595419847
1646443401026.4412,-0.00177001953125,0.12005615234375,0.01885986328125,-0.8625954198473282,-3.0076335877862594,-0.8091603053435115
1646443401041.947,-0.0062255859375,0.12109375,0.0174560546875,-0.931297709923664,-2.541984732824428,-0.7251908396946565
1646443401057.4265,-0.008544921875,0.12225341796875,0.0174560546875,-0.8396946564885496,-1.7404580152671756,-0.5648854961832062
1646443401073.0771,-0.00506591796875,0.12078857421875,0.01763916015625,-0.9618320610687024,-1.1526717557251909,-0.4427480916030534
1646443401088.568,-0.00457763671875,0.12078857421875,0.01727294921875,-0.816793893129771,-0.9847328244274808,-0.465648854961832
1646443401104.2048,-0.00299072265625,0.119140625,0.01708984375,-1.3282442748091603,-0.9236641221374046,-0.4351145038167939
1646443401119.686,-0.00067138671875,0.119140625,0.02056884765625,-1.236641221374046,-1.534351145038168,-0.5419847328244275
1646443401135.194,0.00091552734375,0.120361328125,0.0216064453125,-1.3740458015267176,-2.442748091603053,-0.648854961832061
1646443401150.9272,-0.00299072265625,0.12384033203125,0.02685546875,-0.3358778625954198,-2.7022900763358777,-0.7786259541984732
1646443401166.4268,-0.00115966796875,0.1221923828125,0.02935791015625,-0.9083969465648856,-3.0381679389312977,-0.8244274809160306
1646443401182.1345,-0.0015869140625,0.12249755859375,0.02392578125,-0.6793893129770993,-3.351145038167939,-0.8091603053435115
1646443401197.6392,0.001708984375,0.1221923828125,0.03143310546875,-0.4274809160305343,-3.595419847328244,-0.7709923664122137
1646443401213.15,-0.004150390625,0.1173095703125,0.02197265625,-0.1526717557251908,-3.732824427480916,-0.7862595419847328
1646443401229.006,-0.00323486328125,0.12298583984375,0.02099609375,0.0,-3.8091603053435112,-0.8854961832061069
1646443401244.4329,-0.00128173828125,0.12384033203125,0.017578125,0.1450381679389313,-4.114503816793893,-0.8702290076335878
1646443401260.0913,-0.0032958984375,0.12030029296875,0.01068115234375,0.183206106870229,-4.358778625954199,-0.8396946564885496
1646443401275.5964,-0.0042724609375,0.11700439453125,0.023193359375,0.2366412213740458,-4.213740458015267,-0.8396946564885496
1646443401291.0637,-0.000244140625,0.1239013671875,0.0179443359375,-0.0916030534351145,-4.3893129770992365,-0.8931297709923665
1646443401306.6863,-0.00225830078125,0.12261962890625,0.0240478515625,0.0458015267175572,-4.351145038167939,-0.8625954198473282
1646443401322.1494,-0.00494384765625,0.1168212890625,0.02276611328125,0.0458015267175572,-4.0534351145038165,-0.7862595419847328
1646443401337.7537,-0.00396728515625,0.12054443359375,0.02325439453125,0.0763358778625954,-3.824427480916031,-0.7251908396946565
1646443401353.2163,-0.00286865234375,0.12286376953125,0.022705078125,-0.099236641221374,-3.5877862595419847,-0.732824427480916
1646443401369.5894,-0.0042724609375,0.120361328125,0.01971435546875,-0.183206106870229,-3.473282442748092,-0.7938931297709924
1646443401385.9949,-0.00299072265625,0.12139892578125,0.01983642578125,-0.2061068702290076,-3.114503816793893,-0.6870229007633588
1646443401402.2566,-0.00335693359375,0.12017822265625,0.01934814453125,-0.3740458015267175,-3.137404580152672,-0.6106870229007634
1646443401418.6367,-0.00286865234375,0.12152099609375,0.02239990234375,-0.8244274809160306,-3.2977099236641223,-0.6106870229007634
1646443401434.9636,-0.0028076171875,0.12127685546875,0.01861572265625,-0.5190839694656488,-2.763358778625954,-0.6717557251908397
1646443401451.2278,-0.00262451171875,0.12158203125,0.01995849609375,-0.5114503816793893,-2.6259541984732824,-0.7557251908396947
1646443401467.361,-0.00286865234375,0.12103271484375,0.0205078125,-0.4809160305343511,-2.618320610687023,-0.7022900763358778
1646443401482.834,-0.00335693359375,0.120361328125,0.02227783203125,-0.4198473282442748,-2.5114503816793894,-0.6412213740458015
1646443401502.6426,-0.003173828125,0.12091064453125,0.01580810546875,-0.6946564885496184,-2.541984732824428,-0.6564885496183206
1646443401518.1223,-0.00311279296875,0.122314453125,0.01629638671875,-0.7022900763358778,-1.786259541984733,-0.5801526717557252
1646443401533.6646,0.00042724609375,0.12261962890625,0.02374267578125,-0.6793893129770993,-2.3435114503816794,-0.6335877862595419
1646443401549.3992,0.0009765625,0.1209716796875,0.0263671875,-0.4198473282442748,-2.992366412213741,-0.6870229007633588
1646443401565.339,-0.00128173828125,0.12457275390625,0.02679443359375,-0.1755725190839694,-3.4198473282442747,-0.6946564885496184
1646443401581.8877,0.00018310546875,0.12060546875,0.02459716796875,-0.0381679389312977,-4.0458015267175576,-0.8244274809160306
1646443401598.1526,-0.00311279296875,0.1209716796875,0.0230712890625,-0.2442748091603053,-4.290076335877862,-0.816793893129771
1646443401614.4194,-0.0062255859375,0.12255859375,0.01959228515625,0.2061068702290076,-4.5038167938931295,-0.7022900763358778
1646443401630.847,-0.00286865234375,0.1197509765625,0.016845703125,-0.2824427480916031,-4.404580152671755,-0.6030534351145038
1646443401647.081,-0.002685546875,0.12115478515625,0.01593017578125,-0.5038167938931297,-4.267175572519084,-0.6106870229007634
1646443401663.4102,-0.0023193359375,0.11993408203125,0.01715087890625,-0.7786259541984732,-4.1603053435114505,-0.6946564885496184
1646443401678.9194,-0.0047607421875,0.12158203125,0.01898193359375,-0.931297709923664,-4.0,-0.7022900763358778
1646443401694.384,-0.00408935546875,0.12060546875,0.01678466796875,-0.9236641221374046,-4.068702290076335,-0.7709923664122137
1646443401710.016,-0.0028076171875,0.1204833984375,0.01800537109375,-1.0534351145038168,-4.137404580152672,-0.8320610687022901
1646443401725.504,-0.00531005859375,0.11822509765625,0.02142333984375,-0.9389312977099236,-3.854961832061069,-0.7175572519083969
1646443401741.1226,-0.003662109375,0.12457275390625,0.01910400390625,-0.6412213740458015,-3.450381679389313,-0.6641221374045801
1646443401756.6755,-0.0040283203125,0.1138916015625,0.02899169921875,-0.7557251908396947,-3.862595419847328,-0.7480916030534351
1646443401772.1477,-0.0037841796875,0.116943359375,0.02337646484375,-0.8778625954198473,-4.374045801526718,-0.8778625954198473
1646443401787.8208,-0.000732421875,0.11773681640625,0.02496337890625,-0.5801526717557252,-4.419847328244275,-1.0229007633587786
1646443401803.317,-0.00177001953125,0.12506103515625,0.02825927734375,-0.015267175572519,-4.00763358778626,-1.1450381679389312
1646443401818.98,-0.00213623046875,0.13104248046875,0.01507568359375,-0.1984732824427481,-3.931297709923664,-1.015267175572519
1646443401834.466,-0.0040283203125,0.12335205078125,0.02056884765625,0.0229007633587786,-4.305343511450381,-0.8702290076335878
1646443401849.9338,-0.0001220703125,0.1201171875,0.0166015625,-0.1603053435114503,-4.480916030534351,-0.8625954198473282
1646443401865.9688,-0.00048828125,0.1259765625,0.0169677734375,-0.2442748091603053,-4.755725190839694,-0.9847328244274808
1646443401882.204,-0.0009765625,0.12298583984375,0.016845703125,-0.2366412213740458,-4.66412213740458,-0.9694656488549618
1646443401898.6333,-0.001708984375,0.12384033203125,0.0240478515625,0.0305343511450381,-4.305343511450381,-0.931297709923664
1646443401914.921,-0.00384521484375,0.119384765625,0.01776123046875,0.1450381679389313,-3.862595419847328,-0.8396946564885496
1646443401931.199,-0.00408935546875,0.12335205078125,0.01727294921875,0.0916030534351145,-3.603053435114504,-0.7404580152671756
1646443401947.6523,-0.0023193359375,0.12005615234375,0.02203369140625,-0.0305343511450381,-3.534351145038168,-0.6564885496183206
1646443401963.9253,-0.00238037109375,0.1182861328125,0.01751708984375,-0.3358778625954198,-3.572519083969466,-0.6717557251908397
1646443401979.5935,-0.00323486328125,0.11895751953125,0.02264404296875,-0.1679389312977099,-3.5572519083969465,-0.8244274809160306
1646443401995.0598,-0.00433349609375,0.11956787109375,0.02862548828125,-0.6412213740458015,-3.2519083969465647,-0.7633587786259542
1646443402010.519,-0.002685546875,0.12384033203125,0.02154541015625,-0.6183206106870229,-3.114503816793893,-0.7175572519083969
1646443402026.183,-0.0029296875,0.12725830078125,0.01507568359375,-0.4809160305343511,-3.3053435114503817,-0.8244274809160306
1646443402041.6372,-0.00689697265625,0.12237548828125,0.0213623046875,-0.1221374045801526,-3.137404580152672,-0.7175572519083969
1646443402057.3037,-0.00213623046875,0.12432861328125,0.0235595703125,-0.3587786259541984,-3.045801526717557,-0.6641221374045801
1646443402072.8623,-0.00494384765625,0.11883544921875,0.019287109375,-0.2061068702290076,-3.3282442748091605,-0.7557251908396947
1646443402088.3655,-0.00830078125,0.1171875,0.019287109375,-0.1755725190839694,-2.9083969465648853,-0.6030534351145038
1646443402103.986,-0.00372314453125,0.1270751953125,0.02105712890625,-0.3129770992366412,-2.068702290076336,-0.2366412213740458
1646443402119.5222,-0.0018310546875,0.11981201171875,0.0284423828125,0.099236641221374,-1.9770992366412212,-0.2824427480916031
1646443402135.224,-0.00238037109375,0.1220703125,0.01861572265625,-0.3282442748091603,-2.16793893129771,-0.2671755725190839
1646443402150.8242,0.0018310546875,0.117919921875,0.01953125,-0.7557251908396947,-2.519083969465649,-0.4809160305343511
1646443402166.861,-0.0008544921875,0.1220703125,0.02069091796875,-0.3816793893129771,-2.1603053435114505,-0.6793893129770993
1646443402183.3535,-0.00189208984375,0.12225341796875,0.0269775390625,-0.1755725190839694,-2.015267175572519,-0.8320610687022901
1646443402199.6106,-0.00494384765625,0.12176513671875,0.03143310546875,0.0839694656488549,-2.2900763358778624,-0.648854961832061
1646443402216.038,-0.00274658203125,0.12274169921875,0.02386474609375,0.015267175572519,-2.7938931297709924,-0.4122137404580153
1646443402232.3835,-0.00225830078125,0.1239013671875,0.0146484375,-0.2595419847328244,-3.236641221374046,-0.3740458015267175
1646443402248.6682,0.01544189453125,0.11163330078125,0.02008056640625,-0.0458015267175572,-2.442748091603053,-0.4045801526717557
1646443402265.2244,-0.0052490234375,0.12164306640625,0.01873779296875,-0.3587786259541984,-3.236641221374046,-0.6106870229007634
1646443402280.7578,-0.00396728515625,0.12615966796875,0.02532958984375,-0.4351145038167939,-3.6259541984732815,-0.648854961832061
1646443402296.4548,-0.00225830078125,0.117919921875,0.02410888671875,-0.015267175572519,-3.404580152671756,-0.6183206106870229
1646443402312.0586,-0.0015869140625,0.1162109375,0.02227783203125,-0.3206106870229007,-3.50381679389313,-0.7175572519083969
1646443402327.6028,-0.00018310546875,0.12017822265625,0.01629638671875,-0.6793893129770993,-3.7099236641221376,-0.8702290076335878
1646443402343.272,-0.0042724609375,0.12255859375,0.02191162109375,-0.465648854961832,-3.236641221374046,-0.8854961832061069
1646443402358.7554,-0.00701904296875,0.12060546875,0.0211181640625,-0.2595419847328244,-2.534351145038168,-0.7404580152671756
1646443402374.4656,-0.00445556640625,0.120361328125,0.02392578125,0.0305343511450381,-2.351145038167939,-0.5954198473282443
1646443402389.9705,-0.00030517578125,0.12384033203125,0.0206298828125,-0.2442748091603053,-2.564885496183206,-0.6183206106870229
1646443402405.6775,0.0013427734375,0.12237548828125,0.0185546875,-0.2595419847328244,-2.572519083969466,-0.7022900763358778
1646443402421.181,-0.00140380859375,0.1220703125,0.02032470703125,-0.4274809160305343,-2.7251908396946565,-0.7862595419847328
1646443402436.7314,-0.00115966796875,0.1220703125,0.02203369140625,-0.099236641221374,-2.3587786259541983,-0.6793893129770993
1646443402452.39,-0.00274658203125,0.12127685546875,0.02044677734375,-0.0763358778625954,-2.3969465648854964,-0.5648854961832062
1646443402467.8755,-0.00103759765625,0.12042236328125,0.021484375,-0.0763358778625954,-2.717557251908397,-0.5801526717557252
1646443402483.5332,-0.00018310546875,0.12164306640625,0.0230712890625,-0.2061068702290076,-3.122137404580153,-0.6335877862595419
1646443402499.0664,-0.00140380859375,0.12109375,0.02117919921875,-0.3282442748091603,-3.4580152671755724,-0.6106870229007634
1646443402514.495,-0.0015869140625,0.12127685546875,0.021728515625,-0.2290076335877862,-3.763358778625954,-0.5267175572519084
1646443402530.1414,-0.00390625,0.11883544921875,0.01922607421875,-0.4351145038167939,-4.358778625954199,-0.6717557251908397
1646443402545.6074,-0.00146484375,0.1270751953125,0.01531982421875,-0.6793893129770993,-4.610687022900764,-0.7633587786259542
1646443402561.2292,-0.0035400390625,0.123291015625,0.01715087890625,-0.3893129770992366,-4.793893129770993,-0.8091603053435115
1646443402577.6335,-0.00244140625,0.1192626953125,0.02130126953125,-0.0839694656488549,-4.603053435114504,-0.816793893129771
1646443402593.8542,-0.00506591796875,0.11822509765625,0.01617431640625,-0.0381679389312977,-4.236641221374046,-0.8244274809160306
1646443402610.2607,-0.00225830078125,0.1220703125,0.0152587890625,-0.1526717557251908,-3.633587786259542,-0.9236641221374046
1646443402626.5076,-0.00091552734375,0.12274169921875,0.017578125,-0.1526717557251908,-2.946564885496183,-0.8396946564885496
1646443402642.9006,-0.000732421875,0.121826171875,0.01885986328125,0.1908396946564885,-2.183206106870229,-0.6183206106870229
1646443402659.165,0.000732421875,0.12103271484375,0.022705078125,0.099236641221374,-2.2442748091603053,-0.5725190839694656
1646443402675.0571,-0.003173828125,0.1195068359375,0.01824951171875,-0.1526717557251908,-2.5114503816793894,-0.5725190839694656
1646443402690.786,-0.00164794921875,0.11981201171875,0.0174560546875,-0.4351145038167939,-2.7709923664122136,-0.7938931297709924
1646443402706.264,-0.00238037109375,0.12384033203125,0.01806640625,-0.6793893129770993,-2.9083969465648853,-0.816793893129771
1646443402721.9204,-0.0003662109375,0.1220703125,0.01824951171875,-0.8473282442748091,-2.885496183206107,-0.7557251908396947
1646443402737.3835,-0.00018310546875,0.120849609375,0.0208740234375,-0.3435114503816794,-2.6564885496183206,-0.7709923664122137
1646443402752.9102,-0.00262451171875,0.12255859375,0.019775390625,-0.4198473282442748,-2.877862595419847,-0.7022900763358778
1646443402768.5522,-0.000732421875,0.12139892578125,0.0203857421875,-0.5572519083969466,-3.1908396946564888,-0.6335877862595419
1646443402784.0378,-0.00091552734375,0.121337890625,0.01861572265625,-0.6335877862595419,-3.648854961832061,-0.648854961832061
1646443402799.698,-0.0020751953125,0.122802734375,0.02276611328125,-0.6564885496183206,-3.900763358778626,-0.6259541984732825
1646443402815.1968,-0.0013427734375,0.1219482421875,0.02423095703125,-0.3282442748091603,-4.114503816793893,-0.5725190839694656
1646443402830.6843,-0.00140380859375,0.122314453125,0.02288818359375,-0.3053435114503817,-4.702290076335878,-0.5648854961832062
1646443402846.283,-0.00177001953125,0.119384765625,0.0185546875,-0.5190839694656488,-5.061068702290076,-0.6641221374045801
1646443402862.2185,-0.0035400390625,0.12286376953125,0.01409912109375,-0.8854961832061069,-5.129770992366412,-0.8931297709923665
1646443402877.8853,-0.00286865234375,0.12286376953125,0.01165771484375,-1.076335877862595,-4.687022900763359,-0.8854961832061069
1646443402893.318,-0.00457763671875,0.122802734375,0.0147705078125,-0.5572519083969466,-3.648854961832061,-0.7786259541984732
1646443402908.7837,-0.0009765625,0.12408447265625,0.0184326171875,-0.6412213740458015,-3.145038167938931,-0.6717557251908397
1646443402924.463,-0.00238037109375,0.11993408203125,0.0177001953125,-0.3893129770992366,-2.6564885496183206,-0.6030534351145038
1646443402940.0627,-0.00360107421875,0.12109375,0.018310546875,-0.6641221374045801,-2.5572519083969465,-0.7251908396946565
1646443402955.7417,-0.0009765625,0.12237548828125,0.01922607421875,-0.5114503816793893,-2.175572519083969,-0.7480916030534351
1646443402971.2893,-0.002197265625,0.1217041015625,0.02081298828125,-0.4503816793893129,-1.9694656488549616,-0.732824427480916
1646443402986.7805,-0.001220703125,0.12127685546875,0.02093505859375,-0.3511450381679389,-1.9083969465648856,-0.732824427480916
1646443403002.4675,-0.0009765625,0.12054443359375,0.0189208984375,-0.6030534351145038,-2.099236641221374,-0.8015267175572519
1646443403017.9087,-0.00244140625,0.12060546875,0.02191162109375,-0.648854961832061,-2.0839694656488548,-0.8244274809160306
1646443403033.5933,-0.00225830078125,0.122314453125,0.0216064453125,-0.5725190839694656,-1.984732824427481,-0.7786259541984732
1646443403049.0928,-0.001220703125,0.1220703125,0.023681640625,-0.3893129770992366,-2.206106870229008,-0.6717557251908397
1646443403064.604,-0.00128173828125,0.1202392578125,0.02301025390625,-0.3129770992366412,-2.732824427480916,-0.5572519083969466
1646443403081.285,-0.00396728515625,0.11993408203125,0.02008056640625,-0.4732824427480916,-3.0610687022900764,-0.5190839694656488
1646443403097.5327,-0.00372314453125,0.12432861328125,0.015380859375,-0.9465648854961832,-3.213740458015267,-0.4961832061068702
1646443403113.9636,-0.0054931640625,0.124755859375,0.01861572265625,-0.5343511450381679,-3.0839694656488548,-0.3740458015267175
1646443403130.2268,-0.00506591796875,0.11993408203125,0.0224609375,-0.3206106870229007,-3.717557251908397,-0.2900763358778626
1646443403146.4954,0.0003662109375,0.1158447265625,0.024658203125,-0.8091603053435115,-4.496183206106871,-0.4198473282442748
1646443403163.1035,-0.001708984375,0.11944580078125,0.0218505859375,-1.3282442748091603,-6.030534351145038,-0.8015267175572519
1646443403179.0369,-0.00177001953125,0.12017822265625,0.02667236328125,-1.2061068702290076,-6.465648854961832,-0.916030534351145
1646443403194.762,-0.002685546875,0.12139892578125,0.02252197265625,-1.0534351145038168,-6.648854961832061,-1.0076335877862594
1646443403210.2715,-6.103515625e-05,0.12347412109375,0.0146484375,-0.9923664122137404,-6.541984732824427,-1.068702290076336
1646443403225.793,-0.00653076171875,0.1220703125,0.0068359375,-1.1145038167938932,-6.083969465648855,-0.7557251908396947
1646443403241.5024,-0.00616455078125,0.11993408203125,0.01715087890625,-1.4809160305343512,-5.633587786259542,-0.8320610687022901
1646443403256.9795,-0.00543212890625,0.1201171875,0.0228271484375,-0.4961832061068702,-3.885496183206107,-0.8549618320610687
1646443403272.7056,0.00054931640625,0.12298583984375,0.02032470703125,-0.3740458015267175,-3.977099236641221,-1.0229007633587786
1646443403288.2563,-0.00103759765625,0.1202392578125,0.01593017578125,-0.2748091603053435,-3.435114503816794,-1.0229007633587786
1646443403303.8022,0.0010986328125,0.1236572265625,0.01849365234375,-0.3816793893129771,-2.946564885496183,-0.8778625954198473
1646443403319.4907,0.00042724609375,0.12255859375,0.01904296875,-0.1374045801526717,-1.954198473282443,-0.648854961832061
1646443403334.975,0.001220703125,0.12152099609375,0.0218505859375,-0.1374045801526717,-1.5419847328244274,-0.5038167938931297
1646443403350.6365,-0.0008544921875,0.12066650390625,0.02178955078125,-0.1603053435114503,-1.2900763358778626,-0.4885496183206106
1646443403366.1694,-0.00286865234375,0.12115478515625,0.0177001953125,-0.1221374045801526,-1.015267175572519,-0.4045801526717557
1646443403381.7275,-0.0006103515625,0.12176513671875,0.0235595703125,-0.2748091603053435,-0.9541984732824428,-0.366412213740458
1646443403397.4104,-0.00042724609375,0.12030029296875,0.0218505859375,-0.3740458015267175,-1.183206106870229,-0.4427480916030534
1646443403412.9612,-0.0003662109375,0.12017822265625,0.023193359375,-0.5648854961832062,-1.8854961832061068,-0.6030534351145038
1646443403428.6155,0.00030517578125,0.12286376953125,0.01934814453125,-0.4885496183206106,-1.8778625954198476,-0.6259541984732825
1646443403444.1606,-0.004150390625,0.1209716796875,0.01910400390625,-0.2671755725190839,-1.763358778625954,-0.6030534351145038
1646443403459.665,-0.00115966796875,0.123046875,0.0179443359375,-0.6641221374045801,-1.862595419847328,-0.465648854961832
1646443403475.884,-0.003173828125,0.1318359375,0.02447509765625,0.1984732824427481,-1.4274809160305344,-0.6641221374045801
1646443403492.139,-0.00079345703125,0.11871337890625,0.022216796875,0.5572519083969466,-1.2748091603053435,-0.4885496183206106
1646443403508.62,-0.00140380859375,0.1217041015625,0.0206298828125,0.3435114503816794,-2.030534351145038,-0.648854961832061
1646443403524.8853,-0.00164794921875,0.120849609375,0.0184326171875,0.0305343511450381,-2.4580152671755724,-0.4427480916030534
1646443403541.3777,-0.00103759765625,0.12158203125,0.02459716796875,0.0458015267175572,-2.633587786259542,-0.4274809160305343
1646443403557.619,-0.00146484375,0.118896484375,0.0196533203125,-0.5038167938931297,-3.2442748091603053,-0.4885496183206106
1646443403573.8608,0.00128173828125,0.12200927734375,0.02032470703125,-0.732824427480916,-3.519083969465649,-0.648854961832061
1646443403589.577,-0.00201416015625,0.120849609375,0.0201416015625,-0.7862595419847328,-3.786259541984733,-0.7938931297709924
1646443403605.0393,-0.0018310546875,0.12213134765625,0.02301025390625,-0.9389312977099236,-3.793893129770992,-0.816793893129771
1646443403620.6704,0.000244140625,0.1226806640625,0.01824951171875,-0.7557251908396947,-3.7709923664122136,-0.9465648854961832
1646443403636.154,-0.0009765625,0.123291015625,0.02008056640625,-0.6259541984732825,-3.572519083969466,-1.0534351145038168
1646443403651.6326,0.0013427734375,0.12347412109375,0.021484375,-0.5190839694656488,-3.610687022900764,-1.1450381679389312
1646443403667.308,-0.0013427734375,0.1199951171875,0.01983642578125,-0.3816793893129771,-3.4580152671755724,-1.1450381679389312
1646443403682.9116,-0.0028076171875,0.12225341796875,0.02008056640625,-0.3740458015267175,-3.595419847328244,-1.1145038167938932
1646443403698.5625,-0.00469970703125,0.12115478515625,0.0194091796875,-0.4732824427480916,-3.603053435114504,-1.0
1646443403714.1018,-0.00299072265625,0.12432861328125,0.025634765625,-0.2061068702290076,-3.49618320610687,-0.8702290076335878
1646443403729.5957,-0.0009765625,0.121826171875,0.02496337890625,-0.0381679389312977,-3.404580152671756,-0.7862595419847328
1646443403745.2527,-0.00244140625,0.12115478515625,0.01812744140625,-0.2977099236641221,-3.4122137404580157,-0.7709923664122137
1646443403760.8098,-0.00115966796875,0.12139892578125,0.0208740234375,-0.366412213740458,-3.4122137404580157,-0.7862595419847328
1646443403778.1362,-0.0023193359375,0.1220703125,0.0201416015625,-0.5954198473282443,-3.763358778625954,-0.7557251908396947
1646443403794.4526,-0.00299072265625,0.12353515625,0.02252197265625,-0.5267175572519084,-3.755725190839695,-0.6564885496183206
1646443403811.427,-0.000732421875,0.12109375,0.02392578125,-0.5877862595419847,-3.755725190839695,-0.6870229007633588
1646443403827.8867,-0.00164794921875,0.1241455078125,0.02178955078125,-0.3969465648854962,-3.5877862595419847,-0.6793893129770993
1646443403844.093,-0.002685546875,0.1226806640625,0.021484375,-0.4503816793893129,-3.5801526717557253,-0.6564885496183206
1646443403860.538,-0.002685546875,0.1180419921875,0.02117919921875,-0.3129770992366412,-3.480916030534351,-0.7557251908396947
1646443403876.6614,-0.00164794921875,0.12078857421875,0.02142333984375,-0.7022900763358778,-3.83206106870229,-0.7862595419847328
1646443403892.1138,-0.00213623046875,0.12091064453125,0.02679443359375,-0.6870229007633588,-3.9236641221374047,-0.7633587786259542
1646443403907.824,-0.0025634765625,0.12255859375,0.0250244140625,-0.4885496183206106,-3.885496183206107,-0.8015267175572519
1646443403923.327,-0.00335693359375,0.12054443359375,0.02392578125,-0.4809160305343511,-3.801526717557252,-0.7938931297709924
1646443403938.9624,-0.00201416015625,0.1219482421875,0.01641845703125,-0.2442748091603053,-3.572519083969466,-0.816793893129771
1646443403954.464,-0.00238037109375,0.12066650390625,0.02044677734375,-0.5114503816793893,-3.6793893129770994,-0.7938931297709924
1646443403969.9526,-0.00262451171875,0.12188720703125,0.01519775390625,-0.5343511450381679,-3.931297709923664,-0.7480916030534351
1646443403985.683,-0.0035400390625,0.1234130859375,0.01898193359375,-0.7022900763358778,-4.145038167938932,-0.7480916030534351
1646443404001.162,-0.00238037109375,0.127197265625,0.01824951171875,-0.5114503816793893,-3.862595419847328,-0.7480916030534351
1646443404016.8557,-0.001220703125,0.1171875,0.0313720703125,-0.2900763358778626,-3.8931297709923673,-0.7709923664122137
1646443404032.38,-0.00299072265625,0.11968994140625,0.0238037109375,0.0763358778625954,-3.427480916030534,-0.816793893129771
1646443404047.8855,-0.0028076171875,0.11767578125,0.01666259765625,-0.3206106870229007,-3.755725190839695,-0.9618320610687024
1646443404063.59,-0.00091552734375,0.11822509765625,0.0224609375,-0.3969465648854962,-3.816793893129771,-0.9847328244274808
1646443404079.672,-0.00482177734375,0.13018798828125,0.01739501953125,-0.1679389312977099,-3.0381679389312977,-1.0
1646443404096.07,-0.00274658203125,0.12091064453125,0.0196533203125,0.4809160305343511,-2.6946564885496183,-0.8702290076335878
1646443404112.2942,-0.0020751953125,0.1171875,0.0169677734375,0.4961832061068702,-2.2595419847328246,-0.4885496183206106
1646443404128.5264,0.00128173828125,0.11309814453125,0.01837158203125,-0.3435114503816794,-4.068702290076335,-0.732824427480916
1646443404145.084,-0.0023193359375,0.12103271484375,0.01983642578125,-0.7022900763358778,-3.732824427480916,-0.8244274809160306
1646443404161.3762,-0.0029296875,0.1204833984375,0.0194091796875,-0.6870229007633588,-4.099236641221374,-0.8091603053435115
1646443404177.79,-0.0054931640625,0.1192626953125,0.01611328125,-1.0229007633587786,-4.427480916030534,-0.7175572519083969
1646443404193.2651,-0.00750732421875,0.1221923828125,0.025634765625,-0.4732824427480916,-3.687022900763359,-0.6793893129770993
1646443404208.752,-0.0029296875,0.12152099609375,0.0205078125,-0.7480916030534351,-3.5572519083969465,-0.6946564885496184
1646443404224.5002,-0.00494384765625,0.12225341796875,0.01544189453125,-1.183206106870229,-3.687022900763359,-0.6717557251908397
1646443404239.973,-0.00518798828125,0.11907958984375,0.030029296875,-1.1755725190839694,-4.076335877862595,-0.6259541984732825
1646443404255.776,-0.00439453125,0.12200927734375,0.021728515625,-0.7404580152671756,-2.946564885496183,-0.5114503816793893
1646443404271.2998,-0.00189208984375,0.12176513671875,0.0255126953125,0.0381679389312977,-2.50381679389313,-0.4503816793893129
1646443404286.838,-0.0008544921875,0.12042236328125,0.0234375,0.0839694656488549,-2.404580152671756,-0.4885496183206106
1646443404302.5176,-0.001953125,0.118408203125,0.02325439453125,0.1374045801526717,-2.6412213740458017,-0.6335877862595419
1646443404318.0374,0.001953125,0.123046875,0.0211181640625,-0.2366412213740458,-3.3435114503816794,-0.7480916030534351
1646443404333.677,0.001220703125,0.1163330078125,0.02276611328125,-0.6030534351145038,-4.099236641221374,-0.8702290076335878
1646443404349.1743,0.00048828125,0.121826171875,0.01068115234375,-0.6870229007633588,-4.450381679389313,-0.9847328244274808
1646443404364.6438,-0.0010986328125,0.1239013671875,0.02093505859375,-0.549618320610687,-4.458015267175573,-0.8854961832061069
1646443404380.7942,-0.00030517578125,0.1204833984375,0.02093505859375,-0.4351145038167939,-4.770992366412214,-0.8778625954198473
1646443404397.0671,0.0018310546875,0.1199951171875,0.0299072265625,-0.6412213740458015,-5.0,-0.9236641221374046
1646443404413.4978,-0.0023193359375,0.12579345703125,0.023681640625,-0.1984732824427481,-5.114503816793893,-0.900763358778626
1646443404429.801,-0.00048828125,0.12493896484375,0.03033447265625,-0.3816793893129771,-5.038167938931298,-0.8931297709923665
1646443404446.1045,-0.0020751953125,0.11859130859375,0.02587890625,-0.3587786259541984,-5.32824427480916,-0.8931297709923665
1646443404462.5662,-0.0015869140625,0.12115478515625,0.02362060546875,-0.3053435114503817,-5.3816793893129775,-0.9083969465648856
1646443404478.8608,-0.0037841796875,0.12322998046875,0.02252197265625,-0.366412213740458,-5.412213740458015,-0.8320610687022901
1646443404494.5625,-0.00146484375,0.1192626953125,0.02130126953125,-0.5572519083969466,-5.450381679389313,-0.8320610687022901
1646443404510.087,-0.0032958984375,0.122802734375,0.01763916015625,-0.2366412213740458,-5.229007633587786,-0.8091603053435115
1646443404525.5889,-0.001220703125,0.12188720703125,0.0206298828125,-0.6641221374045801,-5.183206106870229,-0.900763358778626
1646443404541.2693,-0.0010986328125,0.12371826171875,0.01629638671875,-0.5267175572519084,-4.961832061068702,-0.900763358778626
1646443404556.7026,-0.0037841796875,0.1248779296875,0.02008056640625,-0.5267175572519084,-4.679389312977099,-0.8702290076335878
1646443404572.3674,-0.001953125,0.11846923828125,0.02471923828125,-0.7786259541984732,-4.320610687022901,-0.7557251908396947
1646443404587.8623,-0.0032958984375,0.1226806640625,0.01751708984375,-0.5267175572519084,-3.969465648854962,-0.6793893129770993
1646443404603.3516,-0.00201416015625,0.12060546875,0.016845703125,-0.4351145038167939,-3.3969465648854964,-0.7480916030534351
1646443404619.041,0.00128173828125,0.12188720703125,0.01507568359375,-0.6717557251908397,-3.0839694656488548,-0.816793893129771
1646443404634.5571,-0.00103759765625,0.12152099609375,0.01690673828125,-0.5648854961832062,-2.7557251908396947,-0.916030534351145
1646443404650.2222,-0.0018310546875,0.1217041015625,0.017822265625,-0.8244274809160306,-2.5572519083969465,-0.8625954198473282
1646443404665.7085,-0.00311279296875,0.1224365234375,0.01800537109375,-0.6564885496183206,-2.114503816793893,-0.7175572519083969
1646443404681.8804,-0.0028076171875,0.1209716796875,0.02142333984375,-0.8015267175572519,-1.8931297709923665,-0.5954198473282443
1646443404698.162,0.0001220703125,0.12139892578125,0.0198974609375,-0.9236641221374046,-1.6641221374045805,-0.5877862595419847
1646443404714.445,-0.00128173828125,0.1201171875,0.0164794921875,-1.0,-1.7099236641221374,-0.7251908396946565
1646443404730.8928,-0.00225830078125,0.122314453125,0.02191162109375,-0.8549618320610687,-1.1374045801526718,-0.7633587786259542
1646443404747.162,-0.0006103515625,0.121826171875,0.01995849609375,-1.1068702290076335,-1.1755725190839694,-0.7709923664122137
1646443404763.6042,-0.0006103515625,0.12115478515625,0.024169921875,-0.8244274809160306,-1.251908396946565,-0.6946564885496184
1646443404779.812,-0.0032958984375,0.11981201171875,0.022705078125,-0.4885496183206106,-1.381679389312977,-0.6259541984732825
1646443404795.353,-0.0018310546875,0.11962890625,0.02337646484375,-0.549618320610687,-1.7709923664122138,-0.5648854961832062
1646443404810.9963,-0.00433349609375,0.11993408203125,0.02410888671875,-0.6412213740458015,-2.122137404580153,-0.6412213740458015
1646443404826.525,-0.00152587890625,0.11822509765625,0.03009033203125,-0.4351145038167939,-2.2442748091603053,-0.7022900763358778
1646443404842.1775,-0.00323486328125,0.1190185546875,0.02764892578125,-0.4809160305343511,-2.50381679389313,-0.7633587786259542
1646443404857.7224,-0.00146484375,0.12127685546875,0.02044677734375,-0.5725190839694656,-2.954198473282443,-0.8091603053435115
1646443404873.2097,-0.0030517578125,0.12188720703125,0.01751708984375,-0.7557251908396947,-3.030534351145038,-0.7480916030534351
1646443404888.896,-0.002197265625,0.12408447265625,0.02386474609375,-0.2213740458015267,-3.366412213740458,-0.7557251908396947
1646443404904.4114,-0.000244140625,0.12054443359375,0.0213623046875,-0.3587786259541984,-3.740458015267176,-0.7099236641221374
1646443404920.038,-0.00018310546875,0.118408203125,0.02923583984375,-0.1450381679389313,-3.931297709923664,-0.8091603053435115
1646443404935.5835,-0.00341796875,0.1180419921875,0.01953125,-0.0687022900763358,-4.595419847328245,-0.916030534351145
1646443404951.1028,0.0009765625,0.1220703125,0.02685546875,-0.3358778625954198,-4.564885496183206,-0.8549618320610687
1646443404966.769,-0.00201416015625,0.12158203125,0.0225830078125,-0.1679389312977099,-4.206106870229007,-0.8015267175572519
1646443404982.243,-0.00213623046875,0.12298583984375,0.01995849609375,0.3358778625954198,-3.816793893129771,-0.7938931297709924
1646443404997.9004,-0.00067138671875,0.12017822265625,0.02911376953125,0.183206106870229,-3.740458015267176,-0.7862595419847328
1646443405013.429,0.000244140625,0.11883544921875,0.0299072265625,-0.465648854961832,-4.00763358778626,-0.7633587786259542
1646443405028.9585,-0.00140380859375,0.1207275390625,0.02520751953125,-0.5114503816793893,-4.412213740458015,-0.8244274809160306
1646443405044.6362,-0.00274658203125,0.12261962890625,0.0328369140625,-0.2748091603053435,-4.587786259541985,-0.8625954198473282
1646443405060.087,-0.0040283203125,0.12225341796875,0.01800537109375,-0.1297709923664122,-4.961832061068702,-0.8778625954198473
1646443405075.77,-0.00225830078125,0.11962890625,0.02349853515625,0.0229007633587786,-4.961832061068702,-0.8320610687022901
1646443405091.3044,-0.003173828125,0.120361328125,0.02301025390625,-0.1755725190839694,-5.114503816793893,-0.8778625954198473
1646443405106.779,-0.004638671875,0.1201171875,0.01995849609375,0.1068702290076335,-4.923664122137405,-0.8549618320610687
1646443405122.5354,-0.00335693359375,0.1204833984375,0.0174560546875,-0.0687022900763358,-4.580152671755725,-0.7938931297709924
1646443405138.029,-0.0048828125,0.12005615234375,0.02008056640625,-0.1297709923664122,-4.1603053435114505,-0.6946564885496184
1646443405153.71,-0.0009765625,0.1214599609375,0.02618408203125,-0.015267175572519,-3.938931297709924,-0.6641221374045801
1646443405169.2212,-0.00177001953125,0.1204833984375,0.0250244140625,-0.6183206106870229,-4.633587786259542,-0.6946564885496184
1646443405185.0063,-0.00311279296875,0.119384765625,0.0218505859375,-0.5725190839694656,-4.473282442748092,-0.7251908396946565
1646443405201.4363,-0.00445556640625,0.12139892578125,0.02301025390625,-0.6183206106870229,-4.015267175572519,-0.7938931297709924
1646443405217.7102,-0.0037841796875,0.1201171875,0.02490234375,-0.2977099236641221,-3.931297709923664,-0.8473282442748091
1646443405234.3,-0.00079345703125,0.12188720703125,0.01837158203125,-0.5877862595419847,-4.33587786259542,-0.7938931297709924
1646443405250.5964,-0.0025634765625,0.121337890625,0.02691650390625,-0.2824427480916031,-3.83206106870229,-0.7938931297709924
1646443405266.8916,-0.0028076171875,0.1220703125,0.029296875,0.0381679389312977,-3.954198473282443,-0.8625954198473282
1646443405283.4292,-0.00189208984375,0.122802734375,0.015625,-0.4198473282442748,-4.091603053435114,-0.7709923664122137
1646443405298.945,-0.00238037109375,0.12200927734375,0.02227783203125,-0.4198473282442748,-4.297709923664122,-0.8091603053435115
1646443405314.6062,-0.00634765625,0.119384765625,0.024658203125,-0.2213740458015267,-4.358778625954199,-0.7938931297709924
1646443405330.1562,0.0,0.1240234375,0.02850341796875,-0.3358778625954198,-4.236641221374046,-0.7786259541984732
1646443405345.6304,-0.002685546875,0.11712646484375,0.01995849609375,-0.4198473282442748,-4.549618320610687,-0.8625954198473282
1646443405361.3416,-0.00323486328125,0.11773681640625,0.025634765625,-0.2900763358778626,-4.312977099236641,-0.8778625954198473
1646443405376.8435,-0.001220703125,0.1236572265625,0.0203857421875,-0.3053435114503817,-4.511450381679389,-0.8244274809160306
1646443405392.5195,-0.0030517578125,0.12078857421875,0.025146484375,-0.1297709923664122,-4.106870229007634,-0.8320610687022901
1646443405408.0132,-0.0006103515625,0.1195068359375,0.01971435546875,-0.8091603053435115,-4.183206106870229,-0.8091603053435115
1646443405423.535,-0.00054931640625,0.12542724609375,0.020263671875,-0.6641221374045801,-3.610687022900764,-0.931297709923664
1646443405439.1816,-0.0037841796875,0.1173095703125,0.02313232421875,-0.931297709923664,-4.00763358778626,-0.9694656488549618
1646443405454.7102,-0.00384521484375,0.12274169921875,0.006591796875,-0.8473282442748091,-3.7022900763358777,-0.9083969465648856
1646443405470.384,-0.00103759765625,0.122802734375,0.025390625,-0.8396946564885496,-3.7786259541984735,-0.931297709923664
1646443405486.3418,-0.0037841796875,0.121337890625,0.0240478515625,-0.3511450381679389,-3.824427480916031,-0.9389312977099236
1646443405502.5476,-0.00286865234375,0.11956787109375,0.01763916015625,-0.7557251908396947,-4.152671755725191,-1.0076335877862594
1646443405518.9934,0.0010986328125,0.11895751953125,0.023193359375,-0.6870229007633588,-3.931297709923664,-0.9847328244274808
1646443405535.2617,0.00042724609375,0.1219482421875,0.01788330078125,-0.4580152671755725,-4.129770992366412,-1.0534351145038168
1646443405551.6772,-0.00079345703125,0.1207275390625,0.0267333984375,-0.2671755725190839,-4.030534351145038,-0.9923664122137404
1646443405567.8765,-0.0013427734375,0.1212158203125,0.0186767578125,-0.1603053435114503,-4.282442748091603,-0.931297709923664
1646443405584.2637,-0.00335693359375,0.1204833984375,0.02020263671875,-0.1450381679389313,-4.488549618320611,-0.9236641221374046
1646443405599.937,-0.00079345703125,0.11865234375,0.02960205078125,-0.0229007633587786,-4.587786259541985,-0.9083969465648856
1646443405615.4429,-0.00286865234375,0.123291015625,0.02777099609375,0.2824427480916031,-4.610687022900764,-0.900763358778626
1646443405631.116,-0.000732421875,0.1199951171875,0.0240478515625,0.1374045801526717,-4.358778625954199,-0.8473282442748091
1646443405646.6577,-0.0028076171875,0.11614990234375,0.02197265625,-0.3206106870229007,-4.824427480916031,-0.8931297709923665
1646443405662.1672,-0.00152587890625,0.12115478515625,0.01318359375,-0.1908396946564885,-4.625954198473282,-0.8473282442748091
1646443405677.839,-0.00372314453125,0.12164306640625,0.031494140625,0.1908396946564885,-4.343511450381679,-0.8473282442748091
1646443405693.36,-0.0032958984375,0.12078857421875,0.0235595703125,-0.0916030534351145,-4.343511450381679,-0.8320610687022901
1646443405709.0547,-0.002197265625,0.1236572265625,0.018798828125,-0.2977099236641221,-4.312977099236641,-0.7633587786259542
1646443405724.5146,-0.00262451171875,0.12359619140625,0.022705078125,-0.4045801526717557,-4.00763358778626,-0.7175572519083969
1646443405739.96,-0.00408935546875,0.11846923828125,0.018798828125,-0.4351145038167939,-4.114503816793893,-0.7099236641221374
1646443405755.585,-0.0050048828125,0.1229248046875,0.0167236328125,-0.7175572519083969,-4.038167938931298,-0.6717557251908397
1646443405771.0803,-0.00299072265625,0.1199951171875,0.0263671875,-0.4580152671755725,-3.67175572519084,-0.6641221374045801
1646443405787.0762,-0.0047607421875,0.119384765625,0.0179443359375,-0.6641221374045801,-3.931297709923664,-0.6564885496183206
1646443405803.309,-0.00323486328125,0.1201171875,0.01629638671875,-1.1297709923664123,-3.740458015267176,-0.6793893129770993
1646443405819.517,-0.00335693359375,0.1204833984375,0.01806640625,-0.5190839694656488,-3.572519083969466,-0.7251908396946565
1646443405835.9688,-0.00225830078125,0.1248779296875,0.0166015625,-0.6106870229007634,-3.916030534351145,-0.7557251908396947
1646443405852.2207,-0.00146484375,0.118408203125,0.0213623046875,-0.3969465648854962,-3.2290076335877864,-0.7557251908396947
1646443405868.7131,-0.00030517578125,0.1202392578125,0.02093505859375,-0.4809160305343511,-3.931297709923664,-0.8625954198473282
1646443405885.2168,-0.00079345703125,0.11907958984375,0.02642822265625,-0.0916030534351145,-3.7709923664122136,-0.8396946564885496
1646443405900.879,-0.0013427734375,0.12481689453125,0.02325439453125,-0.015267175572519,-4.198473282442748,-0.7862595419847328
1646443405916.3892,-0.0035400390625,0.121826171875,0.0245361328125,0.0305343511450381,-4.312977099236641,-0.7786259541984732
1646443405931.8938,-0.00323486328125,0.12115478515625,0.02593994140625,0.1068702290076335,-4.3893129770992365,-0.7251908396946565
1646443405947.567,-0.00299072265625,0.12054443359375,0.0238037109375,0.0,-4.5038167938931295,-0.7557251908396947
1646443405963.0752,-0.00372314453125,0.1246337890625,0.0157470703125,-0.183206106870229,-4.251908396946565,-0.7480916030534351
1646443405978.686,-0.00152587890625,0.12103271484375,0.0201416015625,-0.0229007633587786,-3.824427480916031,-0.7404580152671756
1646443405994.2502,-0.002197265625,0.123046875,0.02252197265625,-0.2061068702290076,-3.885496183206107,-0.6946564885496184
1646443406009.7522,-0.00152587890625,0.1234130859375,0.0245361328125,-0.0916030534351145,-3.6564885496183206,-0.6793893129770993
1646443406025.475,-0.00274658203125,0.1236572265625,0.0230712890625,-0.1603053435114503,-3.6564885496183206,-0.6183206106870229
1646443406040.9795,-0.00201416015625,0.11944580078125,0.02069091796875,-0.0534351145038167,-3.67175572519084,-0.5801526717557252
1646443406056.6875,-0.00042724609375,0.12188720703125,0.018310546875,-0.183206106870229,-3.564885496183206,-0.5572519083969466
1646443406072.2107,-0.00128173828125,0.12457275390625,0.02398681640625,-0.2366412213740458,-3.938931297709924,-0.549618320610687
1646443406087.8494,-0.000244140625,0.11968994140625,0.0211181640625,-0.2442748091603053,-4.297709923664122,-0.5419847328244275
1646443406104.3562,-0.0029296875,0.12030029296875,0.02008056640625,-0.4580152671755725,-4.404580152671755,-0.6183206106870229
1646443406120.6868,-0.0008544921875,0.12042236328125,0.0224609375,-0.1755725190839694,-4.312977099236641,-0.6717557251908397
1646443406137.1052,-0.00018310546875,0.119873046875,0.02178955078125,-0.3053435114503817,-4.206106870229007,-0.732824427480916
1646443406153.3948,0.00164794921875,0.1231689453125,0.021484375,-0.1908396946564885,-4.198473282442748,-0.732824427480916
1646443406169.6477,0.0006103515625,0.1204833984375,0.02252197265625,-0.1908396946564885,-4.435114503816794,-0.7786259541984732
1646443406186.4504,-0.00244140625,0.1246337890625,0.02252197265625,-0.5190839694656488,-4.465648854961832,-0.816793893129771
1646443406201.9434,-0.00018310546875,0.1219482421875,0.02069091796875,-0.7099236641221374,-4.152671755725191,-0.8244274809160306
1646443406217.6262,-0.00250244140625,0.12237548828125,0.015380859375,-0.6793893129770993,-3.908396946564885,-0.7938931297709924
1646443406233.1648,-0.00238037109375,0.12158203125,0.0186767578125,-0.6870229007633588,-3.519083969465649,-0.732824427480916
1646443406248.631,-0.00360107421875,0.12176513671875,0.0145263671875,-0.8320610687022901,-3.213740458015267,-0.6870229007633588
1646443406264.385,-0.00164794921875,0.12261962890625,0.01849365234375,-0.8396946564885496,-2.6793893129771,-0.7022900763358778
1646443406279.8738,-0.00286865234375,0.12042236328125,0.0184326171875,-0.7022900763358778,-2.1603053435114505,-0.6946564885496184
1646443406295.5984,-0.0025634765625,0.12213134765625,0.0205078125,-0.8091603053435115,-2.0381679389312977,-0.6793893129770993
1646443406311.1062,-0.0018310546875,0.12225341796875,0.02032470703125,-0.6717557251908397,-2.0076335877862594,-0.6106870229007634
1646443406326.6553,-0.0001220703125,0.12286376953125,0.02337646484375,-0.6717557251908397,-2.198473282442748,-0.5419847328244275
1646443406342.3503,-0.0020751953125,0.12225341796875,0.02020263671875,-0.7862595419847328,-2.6106870229007635,-0.5954198473282443
1646443406357.8716,-0.0015869140625,0.12347412109375,0.01837158203125,-0.2748091603053435,-2.6793893129771,-0.6335877862595419
1646443406373.5725,-0.002685546875,0.118896484375,0.02099609375,-0.4580152671755725,-2.9083969465648853,-0.6717557251908397
1646443406389.0632,0.000732421875,0.1240234375,0.02001953125,-0.7175572519083969,-2.7022900763358777,-0.6717557251908397
1646443406404.546,-0.00177001953125,0.12237548828125,0.02081298828125,-0.7251908396946565,-2.5572519083969465,-0.7251908396946565
1646443406420.214,-0.0028076171875,0.1187744140625,0.015380859375,-0.648854961832061,-2.2290076335877864,-0.7862595419847328
1646443406435.7305,-0.00128173828125,0.12103271484375,0.006591796875,-1.1374045801526718,-2.2290076335877864,-0.8473282442748091
1646443406451.4197,-0.0064697265625,0.1219482421875,0.0177001953125,-1.1450381679389312,-0.8473282442748091,-0.7404580152671756
1646443406466.8506,-0.0010986328125,0.12030029296875,0.01983642578125,-1.2900763358778626,-0.7862595419847328,-0.7480916030534351
1646443406482.3796,-0.0006103515625,0.12286376953125,0.02203369140625,-0.931297709923664,-0.4503816793893129,-0.7480916030534351
1646443406498.7788,-0.002197265625,0.12030029296875,0.0218505859375,-0.7786259541984732,0.0381679389312977,-0.7099236641221374
1646443406515.0427,-0.0009765625,0.12188720703125,0.024658203125,-0.6335877862595419,0.0687022900763358,-0.6946564885496184
1646443406535.7024,-0.002685546875,0.1207275390625,0.02691650390625,-0.3282442748091603,0.099236641221374,-0.6564885496183206
1646443406551.9417,-0.0010986328125,0.12188720703125,0.02301025390625,-0.4122137404580153,-0.5954198473282443,-0.6030534351145038
1646443406568.209,0.0006103515625,0.1234130859375,0.02423095703125,-0.366412213740458,-1.2213740458015268,-0.5038167938931297
1646443406584.6912,0.000732421875,0.12615966796875,0.0234375,-0.183206106870229,-2.0076335877862594,-0.4427480916030534
1646443406600.5715,0.000732421875,0.12249755859375,0.01934814453125,-0.0229007633587786,-2.3740458015267176,-0.4274809160305343
1646443406616.2805,-0.00048828125,0.1197509765625,0.01983642578125,-0.0534351145038167,-2.404580152671756,-0.4885496183206106
1646443406631.8008,-0.0018310546875,0.1204833984375,0.01922607421875,-0.4351145038167939,-2.473282442748092,-0.5877862595419847
1646443406647.2876,-0.0028076171875,0.1209716796875,0.013427734375,-0.5877862595419847,-2.3053435114503817,-0.6183206106870229
1646443406662.935,-0.00579833984375,0.1219482421875,0.01373291015625,-0.4961832061068702,-1.7251908396946565,-0.648854961832061
1646443406678.4062,-0.00537109375,0.1195068359375,0.02044677734375,-0.6259541984732825,-0.9465648854961832,-0.6335877862595419
1646443406694.04,-0.00469970703125,0.12139892578125,0.018798828125,-0.6335877862595419,-0.3435114503816794,-0.5725190839694656
1646443406709.5393,-0.00390625,0.121337890625,0.02191162109375,-0.7557251908396947,0.015267175572519,-0.5190839694656488
1646443406725.1565,-0.00238037109375,0.12249755859375,0.02264404296875,-0.7557251908396947,0.1679389312977099,-0.465648854961832
1646443406740.6802,0.00238037109375,0.12188720703125,0.02557373046875,-0.7175572519083969,0.0763358778625954,-0.4045801526717557
1646443406756.168,-0.0020751953125,0.12261962890625,0.02294921875,-0.2900763358778626,-0.7938931297709924,-0.3435114503816794
1646443406771.8762,0.0003662109375,0.12066650390625,0.02490234375,-0.1374045801526717,-1.1526717557251909,-0.3053435114503817
1646443406787.3882,-0.00372314453125,0.1197509765625,0.02099609375,-0.1755725190839694,-0.8854961832061069,-0.3053435114503817
1646443406803.9685,-0.00469970703125,0.1199951171875,0.01483154296875,-0.4580152671755725,0.2061068702290076,-0.2900763358778626
