timestamp,acc_x,acc_y,acc_z,gyr_x,gyr_y,gyr_z
1646443428782.955,0.00885009765625,0.0089111328125,-0.1168212890625,-0.6183206106870229,0.16793893129770993,-0.366412213740458
1646443428783.6995,0.00885009765625,0.0089111328125,-0.1168212890625,-0.6183206106870229,0.16793893129770993,-0.366412213740458
1646443428784.2656,0.0091552734375,0.0087890625,-0.1177978515625,-0.6183206106870229,0.16030534351145037,-0.3511450381679389
1646443428784.8215,0.0091552734375,0.0087890625,-0.1177978515625,-0.6183206106870229,0.16030534351145037,-0.3511450381679389
1646443428785.3757,0.0087890625,0.00933837890625,-0.11773681640625,-0.6106870229007634,0.16030534351145037,-0.3511450381679389
1646443428785.9312,0.0086669921875,0.009521484375,-0.11846923828125,-0.6183206106870229,0.16030534351145037,-0.3511450381679389
1646443428786.5854,0.0086669921875,0.009521484375,-0.11846923828125,-0.6183206106870229,0.16030534351145037,-0.3511450381679389
1646443428787.1504,0.00836181640625,0.00885009765625,-0.11846923828125,-0.6259541984732825,0.1450381679389313,-0.366412213740458
1646443428787.7078,0.00836181640625,0.00885009765625,-0.11846923828125,-0.6259541984732825,0.1450381679389313,-0.366412213740458
1646443428788.2651,0.00799560546875,0.00872802734375,-0.11920166015625,-0.648854961832061,0.13740458015267176,-0.3511450381679389
1646443428788.8208,0.00799560546875,0.00872802734375,-0.11920166015625,-0.648854961832061,0.13740458015267176,-0.3511450381679389
1646443428789.377,0.00848388671875,0.00958251953125,-0.11773681640625,-0.648854961832061,0.16793893129770993,-0.3435114503816794
1646443428789.9326,0.00726318359375,0.0087890625,-0.11822509765625,-0.6412213740458015,0.16793893129770993,-0.33587786259541985
1646443428790.4895,0.00726318359375,0.0087890625,-0.11822509765625,-0.6412213740458015,0.16793893129770993,-0.33587786259541985
1646443428791.045,0.00665283203125,0.0089111328125,-0.11865234375,-0.6259541984732825,0.1450381679389313,-0.33587786259541985
1646443428791.6003,0.00665283203125,0.0089111328125,-0.11865234375,-0.6259541984732825,0.1450381679389313,-0.33587786259541985
1646443428792.1577,0.00689697265625,0.00872802734375,-0.11883544921875,-0.6259541984732825,0.16793893129770993,-0.3511450381679389
1646443428792.7139,0.00689697265625,0.00872802734375,-0.11883544921875,-0.6259541984732825,0.16793893129770993,-0.3511450381679389
1646443428793.2705,0.0072021484375,0.0098876953125,-0.119384765625,-0.6259541984732825,0.17557251908396945,-0.3435114503816794
1646443428793.825,0.0072021484375,0.0098876953125,-0.119384765625,-0.6259541984732825,0.17557251908396945,-0.3435114503816794
1646443428794.3794,0.00738525390625,0.00970458984375,-0.119140625,-0.6259541984732825,0.19083969465648856,-0.33587786259541985
1646443428794.9346,0.00762939453125,0.00909423828125,-0.11956787109375,-0.6183206106870229,0.1984732824427481,-0.3511450381679389
1646443428795.4907,0.00762939453125,0.00909423828125,-0.11956787109375,-0.6183206106870229,0.1984732824427481,-0.3511450381679389
1646443428796.046,0.00762939453125,0.00897216796875,-0.119384765625,-0.6030534351145038,0.20610687022900764,-0.3511450381679389
1646443428796.6033,0.00762939453125,0.00897216796875,-0.119384765625,-0.6030534351145038,0.20610687022900764,-0.3511450381679389
1646443428797.1584,0.0079345703125,0.00958251953125,-0.118408203125,-0.6106870229007634,0.20610687022900764,-0.3435114503816794
1646443428797.7146,0.0079345703125,0.00958251953125,-0.118408203125,-0.6106870229007634,0.20610687022900764,-0.3435114503816794
1646443428798.2703,0.00811767578125,0.01031494140625,-0.11993408203125,-0.6259541984732825,0.20610687022900764,-0.3511450381679389
1646443428798.827,0.00811767578125,0.01031494140625,-0.11993408203125,-0.6259541984732825,0.20610687022900764,-0.3511450381679389
1646443428799.3818,0.00799560546875,0.00982666015625,-0.119140625,-0.6106870229007634,0.21374045801526717,-0.3511450381679389
1646443428799.9365,0.00823974609375,0.009765625,-0.1192626953125,-0.6183206106870229,0.22900763358778625,-0.33587786259541985
1646443428800.4915,0.00823974609375,0.009765625,-0.1192626953125,-0.6183206106870229,0.22900763358778625,-0.33587786259541985
1646443428801.0466,0.00836181640625,0.009521484375,-0.11883544921875,-0.6106870229007634,0.22900763358778625,-0.3435114503816794
1646443428801.6047,0.00836181640625,0.009521484375,-0.11883544921875,-0.6106870229007634,0.22900763358778625,-0.3435114503816794
1646443428802.1648,0.00811767578125,0.0098876953125,-0.11883544921875,-0.6106870229007634,0.22137404580152673,-0.3435114503816794
1646443428802.724,0.00811767578125,0.0098876953125,-0.11883544921875,-0.6106870229007634,0.22137404580152673,-0.3435114503816794
1646443428803.2827,0.00848388671875,0.00970458984375,-0.11871337890625,-0.6335877862595419,0.22900763358778625,-0.3282442748091603
1646443428803.8425,0.00848388671875,0.00970458984375,-0.11871337890625,-0.6335877862595419,0.22900763358778625,-0.3282442748091603
1646443428804.4019,0.0084228515625,0.00958251953125,-0.11895751953125,-0.6412213740458015,0.22137404580152673,-0.3435114503816794
1646443428804.9617,0.0086669921875,0.009033203125,-0.11895751953125,-0.6335877862595419,0.2366412213740458,-0.35877862595419846
1646443428805.5212,0.0086669921875,0.009033203125,-0.11895751953125,-0.6335877862595419,0.2366412213740458,-0.35877862595419846
1646443428806.0803,0.0081787109375,0.0091552734375,-0.11785888671875,-0.6183206106870229,0.2366412213740458,-0.3511450381679389
1646443428806.6372,0.0081787109375,0.0091552734375,-0.11785888671875,-0.6183206106870229,0.2366412213740458,-0.3511450381679389
1646443428807.197,0.0079345703125,0.0091552734375,-0.11773681640625,-0.6183206106870229,0.21374045801526717,-0.3435114503816794
1646443428807.7544,0.0079345703125,0.0091552734375,-0.11773681640625,-0.6183206106870229,0.21374045801526717,-0.3435114503816794
1646443428808.314,0.00823974609375,0.0091552734375,-0.11749267578125,-0.6335877862595419,0.183206106870229,-0.3282442748091603
1646443428808.8718,0.00823974609375,0.0091552734375,-0.11749267578125,-0.6335877862595419,0.183206106870229,-0.3282442748091603
1646443428809.4458,0.0084228515625,0.00897216796875,-0.11737060546875,-0.6564885496183206,0.16793893129770993,-0.3435114503816794
1646443428810.0046,0.0081787109375,0.0091552734375,-0.11834716796875,-0.6564885496183206,0.183206106870229,-0.3435114503816794
1646443428810.5623,0.0081787109375,0.0091552734375,-0.11834716796875,-0.6564885496183206,0.183206106870229,-0.3435114503816794
1646443428811.12,0.007080078125,0.00921630859375,-0.118896484375,-0.6335877862595419,0.17557251908396945,-0.33587786259541985
1646443428811.7007,0.007080078125,0.00921630859375,-0.118896484375,-0.6335877862595419,0.17557251908396945,-0.33587786259541985
1646443428812.2732,0.0076904296875,0.0093994140625,-0.1173095703125,-0.6335877862595419,0.19083969465648856,-0.3282442748091603
1646443428812.8289,0.0076904296875,0.0093994140625,-0.1173095703125,-0.6335877862595419,0.19083969465648856,-0.3282442748091603
1646443428813.385,0.0081787109375,0.00927734375,-0.1171875,-0.6412213740458015,0.20610687022900764,-0.33587786259541985
1646443428813.9377,0.0084228515625,0.00994873046875,-0.1177978515625,-0.6335877862595419,0.183206106870229,-0.33587786259541985
1646443428814.4934,0.0084228515625,0.00994873046875,-0.1177978515625,-0.6335877862595419,0.183206106870229,-0.33587786259541985
1646443428815.0483,0.00860595703125,0.00958251953125,-0.118408203125,-0.6183206106870229,0.183206106870229,-0.33587786259541985
1646443428815.604,0.00860595703125,0.00958251953125,-0.118408203125,-0.6183206106870229,0.183206106870229,-0.33587786259541985
1646443428816.1584,0.008056640625,0.00872802734375,-0.1175537109375,-0.6183206106870229,0.1984732824427481,-0.3435114503816794
1646443428816.7144,0.008056640625,0.00872802734375,-0.1175537109375,-0.6183206106870229,0.1984732824427481,-0.3435114503816794
1646443428817.2683,0.0081787109375,0.00927734375,-0.11767578125,-0.6106870229007634,0.1984732824427481,-0.35877862595419846
1646443428817.824,0.0081787109375,0.00927734375,-0.11767578125,-0.6106870229007634,0.1984732824427481,-0.35877862595419846
1646443428818.3767,0.008056640625,0.0091552734375,-0.117919921875,-0.6106870229007634,0.19083969465648856,-0.35877862595419846
1646443428819.166,0.008544921875,0.009765625,-0.11749267578125,-0.6183206106870229,0.1984732824427481,-0.33587786259541985
1646443428819.7256,0.008544921875,0.009765625,-0.11749267578125,-0.6183206106870229,0.1984732824427481,-0.33587786259541985
1646443428820.281,0.0086669921875,0.01025390625,-0.11773681640625,-0.6259541984732825,0.20610687022900764,-0.3282442748091603
1646443428820.8364,0.0086669921875,0.01025390625,-0.11773681640625,-0.6259541984732825,0.20610687022900764,-0.3282442748091603
1646443428821.3945,0.0081787109375,0.00927734375,-0.11785888671875,-0.6259541984732825,0.20610687022900764,-0.33587786259541985
1646443428821.9563,0.00799560546875,0.00909423828125,-0.11700439453125,-0.6106870229007634,0.20610687022900764,-0.3282442748091603
1646443428822.516,0.00799560546875,0.00909423828125,-0.11700439453125,-0.6106870229007634,0.20610687022900764,-0.3282442748091603
1646443428823.0757,0.00799560546875,0.00946044921875,-0.11712646484375,-0.6183206106870229,0.19083969465648856,-0.33587786259541985
1646443428823.6353,0.00799560546875,0.00946044921875,-0.11712646484375,-0.6183206106870229,0.19083969465648856,-0.33587786259541985
1646443428824.196,0.00799560546875,0.00927734375,-0.1170654296875,-0.6259541984732825,0.1984732824427481,-0.3282442748091603
1646443428824.753,0.00799560546875,0.00927734375,-0.1170654296875,-0.6259541984732825,0.1984732824427481,-0.3282442748091603
1646443428825.31,0.00897216796875,0.009033203125,-0.11724853515625,-0.6183206106870229,0.22137404580152673,-0.3435114503816794
1646443428825.8684,0.00897216796875,0.009033203125,-0.11724853515625,-0.6183206106870229,0.22137404580152673,-0.3435114503816794
1646443428826.4272,0.00927734375,0.0093994140625,-0.11724853515625,-0.6183206106870229,0.24427480916030533,-0.3511450381679389
1646443428826.986,0.00946044921875,0.00970458984375,-0.11688232421875,-0.6259541984732825,0.26717557251908397,-0.3435114503816794
1646443428827.545,0.00946044921875,0.00970458984375,-0.11688232421875,-0.6259541984732825,0.26717557251908397,-0.3435114503816794
1646443428828.104,0.009033203125,0.0091552734375,-0.117431640625,-0.6259541984732825,0.2595419847328244,-0.3435114503816794
1646443428828.6604,0.009033203125,0.0091552734375,-0.117431640625,-0.6259541984732825,0.2595419847328244,-0.3435114503816794
1646443428829.2183,0.00897216796875,0.0096435546875,-0.1170654296875,-0.6030534351145038,0.24427480916030533,-0.35877862595419846
1646443428829.7778,0.00897216796875,0.0096435546875,-0.1170654296875,-0.6030534351145038,0.24427480916030533,-0.35877862595419846
1646443428830.3374,0.00848388671875,0.0096435546875,-0.11712646484375,-0.5877862595419847,0.24427480916030533,-0.35877862595419846
1646443428830.8965,0.00848388671875,0.0096435546875,-0.11712646484375,-0.5877862595419847,0.24427480916030533,-0.35877862595419846
1646443428831.4578,0.0087890625,0.009033203125,-0.11895751953125,-0.6106870229007634,0.22137404580152673,-0.3511450381679389
1646443428832.015,0.0084228515625,0.0101318359375,-0.1185302734375,-0.6183206106870229,0.22900763358778625,-0.3435114503816794
1646443428832.5723,0.0084228515625,0.0101318359375,-0.1185302734375,-0.6183206106870229,0.22900763358778625,-0.3435114503816794
1646443428833.1313,0.0086669921875,0.01043701171875,-0.11810302734375,-0.6030534351145038,0.21374045801526717,-0.3435114503816794
1646443428833.6897,0.0086669921875,0.01043701171875,-0.11810302734375,-0.6030534351145038,0.21374045801526717,-0.3435114503816794
1646443428834.2488,0.00830078125,0.00982666015625,-0.1187744140625,-0.5801526717557252,0.20610687022900764,-0.3511450381679389
1646443428834.8066,0.00830078125,0.00982666015625,-0.1187744140625,-0.5801526717557252,0.20610687022900764,-0.3511450381679389
1646443428835.3652,0.00823974609375,0.00909423828125,-0.117919921875,-0.5877862595419847,0.1984732824427481,-0.35877862595419846
1646443428835.923,0.00811767578125,0.00927734375,-0.117919921875,-0.6030534351145038,0.21374045801526717,-0.35877862595419846
1646443428836.4817,0.00811767578125,0.00927734375,-0.117919921875,-0.6030534351145038,0.21374045801526717,-0.35877862595419846
1646443428837.04,0.00836181640625,0.0089111328125,-0.11883544921875,-0.6183206106870229,0.22137404580152673,-0.3511450381679389
1646443428837.5994,0.00836181640625,0.0089111328125,-0.11883544921875,-0.6183206106870229,0.22137404580152673,-0.3511450381679389
1646443428838.1582,0.00860595703125,0.00946044921875,-0.1177978515625,-0.6183206106870229,0.1984732824427481,-0.3511450381679389
1646443428838.7175,0.00860595703125,0.00946044921875,-0.1177978515625,-0.6183206106870229,0.1984732824427481,-0.3511450381679389
1646443428839.2754,0.00799560546875,0.00927734375,-0.118408203125,-0.6030534351145038,0.1984732824427481,-0.3435114503816794
1646443428839.8333,0.00799560546875,0.00927734375,-0.118408203125,-0.6030534351145038,0.1984732824427481,-0.3435114503816794
1646443428840.3896,0.0081787109375,0.010009765625,-0.118408203125,-0.5877862595419847,0.1984732824427481,-0.3511450381679389
1646443428840.9463,0.0089111328125,0.0101318359375,-0.11871337890625,-0.5954198473282443,0.19083969465648856,-0.3511450381679389
1646443428841.505,0.0089111328125,0.0101318359375,-0.11871337890625,-0.5954198473282443,0.19083969465648856,-0.3511450381679389
1646443428842.0632,0.00872802734375,0.00994873046875,-0.1177978515625,-0.6183206106870229,0.20610687022900764,-0.3435114503816794
1646443428842.622,0.00872802734375,0.00994873046875,-0.1177978515625,-0.6183206106870229,0.20610687022900764,-0.3435114503816794
1646443428843.1794,0.0084228515625,0.0096435546875,-0.11761474609375,-0.6030534351145038,0.20610687022900764,-0.3511450381679389
1646443428843.7385,0.0084228515625,0.0096435546875,-0.11761474609375,-0.6030534351145038,0.20610687022900764,-0.3511450381679389
1646443428844.2966,0.00860595703125,0.00872802734375,-0.117919921875,-0.5801526717557252,0.1984732824427481,-0.3511450381679389
1646443428844.856,0.00860595703125,0.00872802734375,-0.117919921875,-0.5801526717557252,0.1984732824427481,-0.3511450381679389
1646443428845.4136,0.008056640625,0.0096435546875,-0.11773681640625,-0.5725190839694656,0.20610687022900764,-0.3435114503816794
1646443428845.9727,0.0081787109375,0.009521484375,-0.11810302734375,-0.5725190839694656,0.1984732824427481,-0.3511450381679389
1646443428846.53,0.0081787109375,0.009521484375,-0.11810302734375,-0.5725190839694656,0.1984732824427481,-0.3511450381679389
1646443428847.0876,0.00830078125,0.00946044921875,-0.11798095703125,-0.6030534351145038,0.1984732824427481,-0.35877862595419846
1646443428847.646,0.00830078125,0.00946044921875,-0.11798095703125,-0.6030534351145038,0.1984732824427481,-0.35877862595419846
1646443428848.2046,0.00811767578125,0.00927734375,-0.1177978515625,-0.6106870229007634,0.20610687022900764,-0.3511450381679389
1646443428848.763,0.00811767578125,0.00927734375,-0.1177978515625,-0.6106870229007634,0.20610687022900764,-0.3511450381679389
1646443428849.3203,0.0078125,0.0093994140625,-0.1182861328125,-0.6030534351145038,0.20610687022900764,-0.3511450381679389
1646443428849.877,0.0078125,0.0093994140625,-0.1182861328125,-0.6030534351145038,0.20610687022900764,-0.3511450381679389
1646443428850.4321,0.00830078125,0.00897216796875,-0.117919921875,-0.5954198473282443,0.22137404580152673,-0.3511450381679389
1646443428850.9895,0.00848388671875,0.00921630859375,-0.1182861328125,-0.5801526717557252,0.21374045801526717,-0.35877862595419846
1646443428851.549,0.00848388671875,0.00921630859375,-0.1182861328125,-0.5801526717557252,0.21374045801526717,-0.35877862595419846
1646443428852.109,0.0081787109375,0.00982666015625,-0.11798095703125,-0.5725190839694656,0.20610687022900764,-0.3511450381679389
1646443428852.6665,0.0081787109375,0.00982666015625,-0.11798095703125,-0.5725190839694656,0.20610687022900764,-0.3511450381679389
1646443428853.226,0.00762939453125,0.010009765625,-0.1175537109375,-0.5877862595419847,0.1984732824427481,-0.3511450381679389
1646443428853.7832,0.00762939453125,0.010009765625,-0.1175537109375,-0.5877862595419847,0.1984732824427481,-0.3511450381679389
1646443428854.341,0.0076904296875,0.009765625,-0.11846923828125,-0.5954198473282443,0.20610687022900764,-0.3282442748091603
1646443428855.0332,0.0086669921875,0.00927734375,-0.1181640625,-0.5801526717557252,0.21374045801526717,-0.33587786259541985
1646443428855.5947,0.0086669921875,0.00927734375,-0.1181640625,-0.5801526717557252,0.21374045801526717,-0.33587786259541985
1646443428856.153,0.00836181640625,0.00946044921875,-0.1190185546875,-0.5801526717557252,0.22137404580152673,-0.35877862595419846
1646443428856.7134,0.00836181640625,0.00946044921875,-0.1190185546875,-0.5801526717557252,0.22137404580152673,-0.35877862595419846
1646443428857.2727,0.0078125,0.009521484375,-0.117919921875,-0.5954198473282443,0.22137404580152673,-0.3511450381679389
1646443428857.8289,0.0078125,0.009521484375,-0.117919921875,-0.5954198473282443,0.22137404580152673,-0.3511450381679389
1646443428858.3865,0.00830078125,0.009521484375,-0.1181640625,-0.5954198473282443,0.22900763358778625,-0.33587786259541985
1646443428858.9436,0.00732421875,0.00909423828125,-0.117431640625,-0.6030534351145038,0.22900763358778625,-0.3435114503816794
1646443428859.5015,0.00732421875,0.00909423828125,-0.117431640625,-0.6030534351145038,0.22900763358778625,-0.3435114503816794
1646443428860.0598,0.00750732421875,0.00909423828125,-0.1180419921875,-0.6030534351145038,0.22137404580152673,-0.35877862595419846
1646443428860.62,0.00750732421875,0.00909423828125,-0.1180419921875,-0.6030534351145038,0.22137404580152673,-0.35877862595419846
1646443428861.1797,0.00762939453125,0.00933837890625,-0.11883544921875,-0.6106870229007634,0.1984732824427481,-0.3435114503816794
1646443428861.7744,0.00762939453125,0.00933837890625,-0.11883544921875,-0.6106870229007634,0.1984732824427481,-0.3435114503816794
1646443428862.3333,0.0076904296875,0.0096435546875,-0.11822509765625,-0.6106870229007634,0.1984732824427481,-0.3282442748091603
1646443428862.8923,0.0076904296875,0.0096435546875,-0.11822509765625,-0.6106870229007634,0.1984732824427481,-0.3282442748091603
1646443428863.45,0.007568359375,0.00921630859375,-0.1180419921875,-0.6183206106870229,0.21374045801526717,-0.33587786259541985
1646443428864.009,0.0079345703125,0.009521484375,-0.1175537109375,-0.5954198473282443,0.21374045801526717,-0.33587786259541985
1646443428864.5684,0.0079345703125,0.009521484375,-0.1175537109375,-0.5954198473282443,0.21374045801526717,-0.33587786259541985
1646443428865.1272,0.00860595703125,0.009521484375,-0.1175537109375,-0.5877862595419847,0.1984732824427481,-0.33587786259541985
1646443428865.6858,0.00860595703125,0.009521484375,-0.1175537109375,-0.5877862595419847,0.1984732824427481,-0.33587786259541985
1646443428866.2432,0.00860595703125,0.00946044921875,-0.1177978515625,-0.5954198473282443,0.19083969465648856,-0.3435114503816794
1646443428866.803,0.00860595703125,0.00946044921875,-0.1177978515625,-0.5954198473282443,0.19083969465648856,-0.3435114503816794
1646443428867.3606,0.0086669921875,0.00982666015625,-0.1197509765625,-0.5954198473282443,0.1984732824427481,-0.35877862595419846
1646443428867.9202,0.008056640625,0.00946044921875,-0.11822509765625,-0.6183206106870229,0.20610687022900764,-0.35877862595419846
1646443428868.4802,0.008056640625,0.00946044921875,-0.11822509765625,-0.6183206106870229,0.20610687022900764,-0.35877862595419846
1646443428869.0413,0.008056640625,0.00946044921875,-0.11785888671875,-0.6183206106870229,0.20610687022900764,-0.33587786259541985
1646443428869.6003,0.008056640625,0.00946044921875,-0.11785888671875,-0.6183206106870229,0.20610687022900764,-0.33587786259541985
1646443428870.1606,0.00830078125,0.00982666015625,-0.11883544921875,-0.6183206106870229,0.1984732824427481,-0.3282442748091603
1646443428870.7168,0.00830078125,0.00982666015625,-0.11883544921875,-0.6183206106870229,0.1984732824427481,-0.3282442748091603
1646443428871.2786,0.00811767578125,0.009765625,-0.1180419921875,-0.6030534351145038,0.183206106870229,-0.33587786259541985
1646443428871.8328,0.00811767578125,0.009765625,-0.1180419921875,-0.6030534351145038,0.183206106870229,-0.33587786259541985
1646443428872.3865,0.00811767578125,0.0096435546875,-0.11810302734375,-0.6030534351145038,0.20610687022900764,-0.33587786259541985
1646443428872.9424,0.00787353515625,0.0093994140625,-0.11859130859375,-0.6030534351145038,0.1984732824427481,-0.33587786259541985
1646443428873.499,0.00787353515625,0.0093994140625,-0.11859130859375,-0.6030534351145038,0.1984732824427481,-0.33587786259541985
1646443428874.054,0.008056640625,0.00946044921875,-0.118408203125,-0.6259541984732825,0.20610687022900764,-0.33587786259541985
1646443428874.6077,0.008056640625,0.00946044921875,-0.118408203125,-0.6259541984732825,0.20610687022900764,-0.33587786259541985
1646443428875.1633,0.00799560546875,0.009521484375,-0.1173095703125,-0.6259541984732825,0.22900763358778625,-0.3435114503816794
1646443428875.7178,0.00799560546875,0.009521484375,-0.1173095703125,-0.6259541984732825,0.22900763358778625,-0.3435114503816794
1646443428876.2742,0.0079345703125,0.010009765625,-0.11895751953125,-0.6106870229007634,0.22900763358778625,-0.3435114503816794
1646443428876.8286,0.0079345703125,0.010009765625,-0.11895751953125,-0.6106870229007634,0.22900763358778625,-0.3435114503816794
1646443428877.3845,0.008056640625,0.0091552734375,-0.11895751953125,-0.6030534351145038,0.22137404580152673,-0.3511450381679389
1646443428877.9395,0.00799560546875,0.00848388671875,-0.118408203125,-0.6106870229007634,0.21374045801526717,-0.3435114503816794
1646443428878.495,0.00799560546875,0.00848388671875,-0.118408203125,-0.6106870229007634,0.21374045801526717,-0.3435114503816794
1646443428879.0503,0.0081787109375,0.009033203125,-0.118408203125,-0.6030534351145038,0.22137404580152673,-0.33587786259541985
1646443428879.606,0.0081787109375,0.009033203125,-0.118408203125,-0.6030534351145038,0.22137404580152673,-0.33587786259541985
1646443428880.1594,0.008056640625,0.0096435546875,-0.118896484375,-0.6106870229007634,0.2366412213740458,-0.3282442748091603
1646443428880.7136,0.008056640625,0.0096435546875,-0.118896484375,-0.6106870229007634,0.2366412213740458,-0.3282442748091603
1646443428881.2969,0.00775146484375,0.0093994140625,-0.11834716796875,-0.6106870229007634,0.2595419847328244,-0.3282442748091603
1646443428881.8574,0.00775146484375,0.0093994140625,-0.11834716796875,-0.6106870229007634,0.2595419847328244,-0.3282442748091603
1646443428882.4153,0.0079345703125,0.0096435546875,-0.11859130859375,-0.6106870229007634,0.26717557251908397,-0.3435114503816794
1646443428882.9734,0.00738525390625,0.00921630859375,-0.11865234375,-0.6183206106870229,0.26717557251908397,-0.33587786259541985
1646443428883.532,0.00738525390625,0.00921630859375,-0.11865234375,-0.6183206106870229,0.26717557251908397,-0.33587786259541985
1646443428884.0903,0.0074462890625,0.0086669921875,-0.11962890625,-0.6335877862595419,0.25190839694656486,-0.3282442748091603
1646443428884.6494,0.0074462890625,0.0086669921875,-0.11962890625,-0.6335877862595419,0.25190839694656486,-0.3282442748091603
1646443428885.2075,0.0076904296875,0.00933837890625,-0.11871337890625,-0.6412213740458015,0.2595419847328244,-0.33587786259541985
1646443428885.767,0.0076904296875,0.00933837890625,-0.11871337890625,-0.6412213740458015,0.2595419847328244,-0.33587786259541985
1646443428886.326,0.00775146484375,0.00897216796875,-0.117431640625,-0.6335877862595419,0.2595419847328244,-0.3282442748091603
1646443428886.8843,0.00775146484375,0.00897216796875,-0.117431640625,-0.6335877862595419,0.2595419847328244,-0.3282442748091603
1646443428887.4417,0.00726318359375,0.00921630859375,-0.1177978515625,-0.6335877862595419,0.2595419847328244,-0.32061068702290074
1646443428888.001,0.00750732421875,0.00946044921875,-0.11883544921875,-0.6259541984732825,0.26717557251908397,-0.31297709923664124
1646443428888.56,0.00750732421875,0.00946044921875,-0.11883544921875,-0.6259541984732825,0.26717557251908397,-0.31297709923664124
1646443428889.12,0.0076904296875,0.0098876953125,-0.11865234375,-0.6259541984732825,0.25190839694656486,-0.33587786259541985
1646443428889.6763,0.0076904296875,0.0098876953125,-0.11865234375,-0.6259541984732825,0.25190839694656486,-0.33587786259541985
1646443428890.2336,0.00787353515625,0.00909423828125,-0.118408203125,-0.6412213740458015,0.2595419847328244,-0.3511450381679389
1646443428890.908,0.0081787109375,0.0091552734375,-0.11834716796875,-0.6412213740458015,0.25190839694656486,-0.3435114503816794
1646443428891.4707,0.0081787109375,0.0091552734375,-0.11834716796875,-0.6412213740458015,0.25190839694656486,-0.3435114503816794
1646443428892.0308,0.00799560546875,0.00927734375,-0.11767578125,-0.6335877862595419,0.2595419847328244,-0.3511450381679389
1646443428892.5874,0.00799560546875,0.00927734375,-0.11767578125,-0.6335877862595419,0.2595419847328244,-0.3511450381679389
1646443428893.1453,0.00823974609375,0.0096435546875,-0.117919921875,-0.6412213740458015,0.2595419847328244,-0.33587786259541985
1646443428893.7039,0.00823974609375,0.0096435546875,-0.117919921875,-0.6412213740458015,0.2595419847328244,-0.33587786259541985
1646443428894.2632,0.0084228515625,0.00927734375,-0.1175537109375,-0.648854961832061,0.25190839694656486,-0.3435114503816794
1646443428894.8196,0.0084228515625,0.00927734375,-0.1175537109375,-0.648854961832061,0.25190839694656486,-0.3435114503816794
1646443428895.378,0.00750732421875,0.01007080078125,-0.11846923828125,-0.6412213740458015,0.2595419847328244,-0.3511450381679389
1646443428895.9368,0.00836181640625,0.01025390625,-0.11883544921875,-0.6412213740458015,0.2748091603053435,-0.3435114503816794
1646443428896.4963,0.00836181640625,0.01025390625,-0.11883544921875,-0.6412213740458015,0.2748091603053435,-0.3435114503816794
1646443428897.0537,0.00836181640625,0.0098876953125,-0.1185302734375,-0.6335877862595419,0.26717557251908397,-0.33587786259541985
1646443428897.6125,0.00836181640625,0.0098876953125,-0.1185302734375,-0.6335877862595419,0.26717557251908397,-0.33587786259541985
1646443428898.1719,0.00836181640625,0.0087890625,-0.1185302734375,-0.6412213740458015,0.26717557251908397,-0.33587786259541985
1646443428898.7295,0.00836181640625,0.0087890625,-0.1185302734375,-0.6412213740458015,0.26717557251908397,-0.33587786259541985
1646443428899.2886,0.007568359375,0.009033203125,-0.11834716796875,-0.648854961832061,0.26717557251908397,-0.3511450381679389
1646443428899.8462,0.007568359375,0.009033203125,-0.11834716796875,-0.648854961832061,0.26717557251908397,-0.3511450381679389
1646443428900.4055,0.00885009765625,0.0093994140625,-0.11676025390625,-0.6259541984732825,0.24427480916030533,-0.3435114503816794
1646443428900.9639,0.00970458984375,0.00860595703125,-0.115966796875,-0.6259541984732825,0.1984732824427481,-0.3511450381679389
1646443428901.5232,0.00970458984375,0.00860595703125,-0.115966796875,-0.6259541984732825,0.1984732824427481,-0.3511450381679389
1646443428902.081,0.0093994140625,0.008544921875,-0.1175537109375,-0.6412213740458015,0.19083969465648856,-0.3511450381679389
1646443428902.6396,0.0093994140625,0.008544921875,-0.1175537109375,-0.6412213740458015,0.19083969465648856,-0.3511450381679389
1646443428903.1975,0.00958251953125,0.00823974609375,-0.12017822265625,-0.6259541984732825,0.183206106870229,-0.3435114503816794
1646443428903.7573,0.00958251953125,0.00823974609375,-0.12017822265625,-0.6259541984732825,0.183206106870229,-0.3435114503816794
1646443428904.3142,0.0081787109375,0.00946044921875,-0.1177978515625,-0.6030534351145038,0.15267175572519084,-0.3282442748091603
1646443428904.8745,0.0081787109375,0.00946044921875,-0.1177978515625,-0.6030534351145038,0.15267175572519084,-0.3282442748091603
1646443428905.4329,0.00872802734375,0.0091552734375,-0.114990234375,-0.6259541984732825,0.16030534351145037,-0.3511450381679389
1646443428905.9897,0.00909423828125,0.0093994140625,-0.11761474609375,-0.648854961832061,0.17557251908396945,-0.35877862595419846
1646443428906.549,0.00909423828125,0.0093994140625,-0.11761474609375,-0.648854961832061,0.17557251908396945,-0.35877862595419846
1646443428907.1074,0.00958251953125,0.01007080078125,-0.11773681640625,-0.6412213740458015,0.17557251908396945,-0.35877862595419846
1646443428907.668,0.00958251953125,0.01007080078125,-0.11773681640625,-0.6412213740458015,0.17557251908396945,-0.35877862595419846
1646443428908.2268,0.00946044921875,0.0103759765625,-0.11749267578125,-0.6030534351145038,0.17557251908396945,-0.3511450381679389
1646443428908.7878,0.00946044921875,0.0103759765625,-0.11749267578125,-0.6030534351145038,0.17557251908396945,-0.3511450381679389
1646443428909.347,0.00958251953125,0.00946044921875,-0.11737060546875,-0.5954198473282443,0.16030534351145037,-0.3511450381679389
1646443428909.9065,0.00933837890625,0.0093994140625,-0.1168212890625,-0.6030534351145038,0.13740458015267176,-0.35877862595419846
1646443428910.465,0.00933837890625,0.0093994140625,-0.1168212890625,-0.6030534351145038,0.13740458015267176,-0.35877862595419846
1646443428911.0251,0.009033203125,0.0096435546875,-0.116943359375,-0.6183206106870229,0.15267175572519084,-0.35877862595419846
1646443428911.5835,0.009033203125,0.0096435546875,-0.116943359375,-0.6183206106870229,0.15267175572519084,-0.35877862595419846
1646443428912.1423,0.009033203125,0.00946044921875,-0.11651611328125,-0.6106870229007634,0.13740458015267176,-0.366412213740458
1646443428912.7002,0.009033203125,0.00946044921875,-0.11651611328125,-0.6106870229007634,0.13740458015267176,-0.366412213740458
1646443428913.26,0.0086669921875,0.0101318359375,-0.11761474609375,-0.5801526717557252,0.12213740458015267,-0.35877862595419846
1646443428913.8188,0.0086669921875,0.0101318359375,-0.11761474609375,-0.5801526717557252,0.12213740458015267,-0.35877862595419846
1646443428914.3787,0.00836181640625,0.00897216796875,-0.117431640625,-0.5725190839694656,0.15267175572519084,-0.33587786259541985
1646443428914.9375,0.00836181640625,0.00982666015625,-0.11749267578125,-0.5877862595419847,0.17557251908396945,-0.33587786259541985
1646443428915.4973,0.00836181640625,0.00982666015625,-0.11749267578125,-0.5877862595419847,0.17557251908396945,-0.33587786259541985
1646443428916.0579,0.00860595703125,0.01025390625,-0.11785888671875,-0.5877862595419847,0.19083969465648856,-0.3435114503816794
1646443428916.6152,0.00860595703125,0.01025390625,-0.11785888671875,-0.5877862595419847,0.19083969465648856,-0.3435114503816794
1646443428917.1743,0.009033203125,0.0091552734375,-0.11688232421875,-0.5877862595419847,0.183206106870229,-0.3435114503816794
1646443428917.7307,0.009033203125,0.0091552734375,-0.11688232421875,-0.5877862595419847,0.183206106870229,-0.3435114503816794
1646443428918.289,0.00848388671875,0.00958251953125,-0.11761474609375,-0.5725190839694656,0.17557251908396945,-0.3511450381679389
1646443428918.8477,0.00848388671875,0.00958251953125,-0.11761474609375,-0.5725190839694656,0.17557251908396945,-0.3511450381679389
1646443428919.408,0.008544921875,0.00909423828125,-0.11810302734375,-0.5648854961832062,0.183206106870229,-0.3282442748091603
1646443428919.9636,0.00836181640625,0.00909423828125,-0.117919921875,-0.5725190839694656,0.1984732824427481,-0.33587786259541985
1646443428920.5244,0.00836181640625,0.00909423828125,-0.117919921875,-0.5725190839694656,0.1984732824427481,-0.33587786259541985
1646443428921.0823,0.007568359375,0.01007080078125,-0.11810302734375,-0.5648854961832062,0.21374045801526717,-0.3282442748091603
1646443428921.6426,0.007568359375,0.01007080078125,-0.11810302734375,-0.5648854961832062,0.21374045801526717,-0.3282442748091603
1646443428922.201,0.00927734375,0.009521484375,-0.11773681640625,-0.5725190839694656,0.21374045801526717,-0.3282442748091603
1646443428922.7573,0.00927734375,0.009521484375,-0.11773681640625,-0.5725190839694656,0.21374045801526717,-0.3282442748091603
1646443428923.3142,0.0091552734375,0.00958251953125,-0.1170654296875,-0.5725190839694656,0.21374045801526717,-0.3282442748091603
1646443428923.8723,0.0091552734375,0.00958251953125,-0.1170654296875,-0.5725190839694656,0.21374045801526717,-0.3282442748091603
1646443428924.4316,0.00933837890625,0.010498046875,-0.1173095703125,-0.5725190839694656,0.22137404580152673,-0.3435114503816794
1646443428924.99,0.00872802734375,0.01019287109375,-0.1175537109375,-0.5877862595419847,0.22137404580152673,-0.35877862595419846
1646443428925.549,0.00872802734375,0.01019287109375,-0.1175537109375,-0.5877862595419847,0.22137404580152673,-0.35877862595419846
1646443428926.1077,0.00823974609375,0.00982666015625,-0.11846923828125,-0.6030534351145038,0.22900763358778625,-0.3435114503816794
1646443428926.772,0.00823974609375,0.00982666015625,-0.11846923828125,-0.6030534351145038,0.22900763358778625,-0.3435114503816794
1646443428927.334,0.0091552734375,0.0098876953125,-0.11785888671875,-0.5877862595419847,0.20610687022900764,-0.33587786259541985
1646443428927.8955,0.0091552734375,0.0098876953125,-0.11785888671875,-0.5877862595419847,0.20610687022900764,-0.33587786259541985
1646443428928.4565,0.00933837890625,0.00958251953125,-0.1170654296875,-0.5725190839694656,0.19083969465648856,-0.33587786259541985
1646443428929.018,0.00848388671875,0.0087890625,-0.11822509765625,-0.5801526717557252,0.20610687022900764,-0.3511450381679389
1646443428929.5757,0.00848388671875,0.0087890625,-0.11822509765625,-0.5801526717557252,0.20610687022900764,-0.3511450381679389
1646443428930.1323,0.00860595703125,0.00897216796875,-0.1190185546875,-0.5877862595419847,0.20610687022900764,-0.3511450381679389
1646443428930.6907,0.00860595703125,0.00897216796875,-0.1190185546875,-0.5877862595419847,0.20610687022900764,-0.3511450381679389
1646443428931.276,0.00909423828125,0.009033203125,-0.11883544921875,-0.5954198473282443,0.20610687022900764,-0.35877862595419846
1646443428931.835,0.00909423828125,0.009033203125,-0.11883544921875,-0.5954198473282443,0.20610687022900764,-0.35877862595419846
1646443428932.391,0.00762939453125,0.00897216796875,-0.1190185546875,-0.6030534351145038,0.20610687022900764,-0.3435114503816794
1646443428932.9478,0.0078125,0.0091552734375,-0.1192626953125,-0.6030534351145038,0.19083969465648856,-0.3435114503816794
1646443428933.502,0.0078125,0.0091552734375,-0.1192626953125,-0.6030534351145038,0.19083969465648856,-0.3435114503816794
1646443428934.0562,0.00836181640625,0.0101318359375,-0.118408203125,-0.5954198473282443,0.183206106870229,-0.3511450381679389
1646443428934.61,0.00836181640625,0.0101318359375,-0.118408203125,-0.5954198473282443,0.183206106870229,-0.3511450381679389
1646443428935.1655,0.0084228515625,0.009765625,-0.11810302734375,-0.5801526717557252,0.20610687022900764,-0.3511450381679389
1646443428935.72,0.0084228515625,0.009765625,-0.11810302734375,-0.5801526717557252,0.20610687022900764,-0.3511450381679389
1646443428936.2744,0.00823974609375,0.00946044921875,-0.11773681640625,-0.5877862595419847,0.21374045801526717,-0.3435114503816794
1646443428936.8306,0.00823974609375,0.00946044921875,-0.11773681640625,-0.5877862595419847,0.21374045801526717,-0.3435114503816794
1646443428937.3887,0.0078125,0.0098876953125,-0.1187744140625,-0.5954198473282443,0.21374045801526717,-0.3282442748091603
1646443428937.9424,0.0079345703125,0.0096435546875,-0.11956787109375,-0.6030534351145038,0.1984732824427481,-0.33587786259541985
1646443428938.4988,0.0079345703125,0.0096435546875,-0.11956787109375,-0.6030534351145038,0.1984732824427481,-0.33587786259541985
1646443428939.0542,0.00811767578125,0.0096435546875,-0.119140625,-0.5954198473282443,0.183206106870229,-0.3511450381679389
1646443428939.6077,0.00811767578125,0.0096435546875,-0.119140625,-0.5954198473282443,0.183206106870229,-0.3511450381679389
1646443428940.1611,0.0078125,0.00933837890625,-0.118408203125,-0.6030534351145038,0.17557251908396945,-0.3435114503816794
1646443428940.715,0.0078125,0.00933837890625,-0.118408203125,-0.6030534351145038,0.17557251908396945,-0.3435114503816794
1646443428941.392,0.0076904296875,0.00946044921875,-0.11895751953125,-0.6030534351145038,0.183206106870229,-0.3435114503816794
1646443428941.9524,0.0074462890625,0.0096435546875,-0.11968994140625,-0.6030534351145038,0.19083969465648856,-0.3435114503816794
1646443428942.513,0.0074462890625,0.0096435546875,-0.11968994140625,-0.6030534351145038,0.19083969465648856,-0.3435114503816794
1646443428943.0715,0.007568359375,0.009521484375,-0.11834716796875,-0.6030534351145038,0.17557251908396945,-0.33587786259541985
1646443428943.6309,0.007568359375,0.009521484375,-0.11834716796875,-0.6030534351145038,0.17557251908396945,-0.33587786259541985
1646443428944.1887,0.0084228515625,0.0098876953125,-0.11871337890625,-0.5954198473282443,0.16030534351145037,-0.33587786259541985
1646443428944.7502,0.0084228515625,0.0098876953125,-0.11871337890625,-0.5954198473282443,0.16030534351145037,-0.33587786259541985
1646443428945.31,0.0089111328125,0.01031494140625,-0.1187744140625,-0.6106870229007634,0.16030534351145037,-0.3511450381679389
1646443428945.868,0.0089111328125,0.01031494140625,-0.1187744140625,-0.6106870229007634,0.16030534351145037,-0.3511450381679389
1646443428946.4263,0.0084228515625,0.0096435546875,-0.119140625,-0.6183206106870229,0.15267175572519084,-0.3511450381679389
1646443428946.9834,0.00860595703125,0.00982666015625,-0.11846923828125,-0.6183206106870229,0.13740458015267176,-0.3435114503816794
1646443428947.5437,0.00860595703125,0.00982666015625,-0.11846923828125,-0.6183206106870229,0.13740458015267176,-0.3435114503816794
1646443428948.1028,0.00823974609375,0.00994873046875,-0.11810302734375,-0.6183206106870229,0.11450381679389313,-0.33587786259541985
1646443428948.6636,0.00823974609375,0.00994873046875,-0.11810302734375,-0.6183206106870229,0.11450381679389313,-0.33587786259541985
1646443428949.2239,0.0076904296875,0.00927734375,-0.1175537109375,-0.6183206106870229,0.11450381679389313,-0.3511450381679389
1646443428949.7827,0.0076904296875,0.00927734375,-0.1175537109375,-0.6183206106870229,0.11450381679389313,-0.3511450381679389
1646443428950.3398,0.00927734375,0.0101318359375,-0.116943359375,-0.6335877862595419,0.10687022900763359,-0.35877862595419846
1646443428950.8984,0.00927734375,0.0101318359375,-0.116943359375,-0.6335877862595419,0.10687022900763359,-0.35877862595419846
1646443428951.4568,0.0108642578125,0.0107421875,-0.116455078125,-0.6106870229007634,0.05343511450381679,-0.366412213740458
1646443428952.014,0.0135498046875,0.00958251953125,-0.11383056640625,-0.5801526717557252,-0.04580152671755725,-0.37404580152671757
1646443428952.5737,0.0135498046875,0.00958251953125,-0.11383056640625,-0.5801526717557252,-0.04580152671755725,-0.37404580152671757
1646443428953.1343,0.01348876953125,0.0079345703125,-0.11517333984375,-0.648854961832061,-0.061068702290076333,-0.3816793893129771
1646443428953.694,0.01348876953125,0.0079345703125,-0.11517333984375,-0.648854961832061,-0.061068702290076333,-0.3816793893129771
1646443428954.2527,0.0120849609375,0.008544921875,-0.11883544921875,-0.6335877862595419,0.007633587786259542,-0.366412213740458
1646443428954.8103,0.0120849609375,0.008544921875,-0.11883544921875,-0.6335877862595419,0.007633587786259542,-0.366412213740458
1646443428955.3682,0.0091552734375,0.009521484375,-0.1207275390625,-0.5648854961832062,-0.015267175572519083,-0.37404580152671757
1646443428955.9287,0.0068359375,0.00970458984375,-0.11474609375,-0.5648854961832062,-0.10687022900763359,-0.3969465648854962
1646443428956.4873,0.0068359375,0.00970458984375,-0.11474609375,-0.5648854961832062,-0.10687022900763359,-0.3969465648854962
1646443428957.0461,0.0068359375,0.0084228515625,-0.1104736328125,-0.6335877862595419,-0.10687022900763359,-0.3969465648854962
1646443428957.6038,0.0068359375,0.0084228515625,-0.1104736328125,-0.6335877862595419,-0.10687022900763359,-0.3969465648854962
1646443428958.1626,0.0072021484375,0.00830078125,-0.1162109375,-0.6870229007633588,0.015267175572519083,-0.37404580152671757
1646443428958.7195,0.0072021484375,0.00830078125,-0.1162109375,-0.6870229007633588,0.015267175572519083,-0.37404580152671757
1646443428959.2776,0.00762939453125,0.0098876953125,-0.1221923828125,-0.5954198473282443,0.10687022900763359,-0.35877862595419846
1646443428959.8374,0.00762939453125,0.0098876953125,-0.1221923828125,-0.5954198473282443,0.10687022900763359,-0.35877862595419846
1646443428960.3977,0.00714111328125,0.0103759765625,-0.121337890625,-0.4732824427480916,0.0916030534351145,-0.366412213740458
1646443428960.9548,0.006103515625,0.0103759765625,-0.11749267578125,-0.5114503816793893,0.03816793893129771,-0.37404580152671757
1646443428961.515,0.006103515625,0.0103759765625,-0.11749267578125,-0.5114503816793893,0.03816793893129771,-0.37404580152671757
1646443428962.073,0.00616455078125,0.0101318359375,-0.1143798828125,-0.648854961832061,0.08396946564885496,-0.3511450381679389
1646443428962.7498,0.00616455078125,0.0101318359375,-0.1143798828125,-0.648854961832061,0.08396946564885496,-0.3511450381679389
1646443428963.3123,0.0068359375,0.01043701171875,-0.11761474609375,-0.6793893129770993,0.183206106870229,-0.3282442748091603
1646443428963.871,0.0068359375,0.01043701171875,-0.11761474609375,-0.6793893129770993,0.183206106870229,-0.3282442748091603
1646443428964.4285,0.00787353515625,0.01031494140625,-0.118896484375,-0.549618320610687,0.2595419847328244,-0.33587786259541985
1646443428964.9868,0.0086669921875,0.009521484375,-0.1199951171875,-0.4351145038167939,0.2900763358778626,-0.3435114503816794
1646443428965.545,0.0086669921875,0.009521484375,-0.1199951171875,-0.4351145038167939,0.2900763358778626,-0.3435114503816794
1646443428966.1023,0.00799560546875,0.00909423828125,-0.11981201171875,-0.4580152671755725,0.26717557251908397,-0.37404580152671757
1646443428966.664,0.00799560546875,0.00909423828125,-0.11981201171875,-0.4580152671755725,0.26717557251908397,-0.37404580152671757
1646443428967.2234,0.00750732421875,0.0087890625,-0.11456298828125,-0.5725190839694656,0.22137404580152673,-0.35877862595419846
1646443428967.7834,0.00750732421875,0.0087890625,-0.11456298828125,-0.5725190839694656,0.22137404580152673,-0.35877862595419846
1646443428968.3416,0.007568359375,0.0084228515625,-0.1146240234375,-0.6412213740458015,0.22137404580152673,-0.32061068702290074
1646443428968.8994,0.00830078125,0.00897216796875,-0.11566162109375,-0.6183206106870229,0.25190839694656486,-0.33587786259541985
1646443428969.4578,0.00830078125,0.00897216796875,-0.11566162109375,-0.6183206106870229,0.25190839694656486,-0.33587786259541985
1646443428970.0164,0.00872802734375,0.0089111328125,-0.1180419921875,-0.5648854961832062,0.26717557251908397,-0.33587786259541985
1646443428970.577,0.00872802734375,0.0089111328125,-0.1180419921875,-0.5648854961832062,0.26717557251908397,-0.33587786259541985
1646443428971.1357,0.00836181640625,0.00946044921875,-0.11944580078125,-0.5572519083969466,0.26717557251908397,-0.3435114503816794
1646443428971.726,0.00836181640625,0.00946044921875,-0.11944580078125,-0.5572519083969466,0.26717557251908397,-0.3435114503816794
1646443428972.2866,0.00787353515625,0.009521484375,-0.1182861328125,-0.6030534351145038,0.2366412213740458,-0.3435114503816794
1646443428972.8455,0.00787353515625,0.009521484375,-0.1182861328125,-0.6030534351145038,0.2366412213740458,-0.3435114503816794
1646443428973.4023,0.00885009765625,0.0096435546875,-0.1185302734375,-0.6335877862595419,0.22137404580152673,-0.33587786259541985
1646443428973.9626,0.0096435546875,0.00872802734375,-0.11810302734375,-0.6641221374045801,0.21374045801526717,-0.33587786259541985
1646443428974.522,0.0096435546875,0.00872802734375,-0.11810302734375,-0.6641221374045801,0.21374045801526717,-0.33587786259541985
1646443428975.0813,0.0093994140625,0.00885009765625,-0.1192626953125,-0.648854961832061,0.19083969465648856,-0.3435114503816794
1646443428975.6394,0.0093994140625,0.00885009765625,-0.1192626953125,-0.648854961832061,0.19083969465648856,-0.3435114503816794
1646443428976.199,0.00933837890625,0.0089111328125,-0.1204833984375,-0.6335877862595419,0.17557251908396945,-0.3435114503816794
1646443428976.757,0.00933837890625,0.0089111328125,-0.1204833984375,-0.6335877862595419,0.17557251908396945,-0.3435114503816794
1646443428977.3142,0.00848388671875,0.0091552734375,-0.1190185546875,-0.6412213740458015,0.16030534351145037,-0.33587786259541985
1646443428977.8726,0.00848388671875,0.0091552734375,-0.1190185546875,-0.6412213740458015,0.16030534351145037,-0.33587786259541985
1646443428978.4314,0.00738525390625,0.0091552734375,-0.11871337890625,-0.648854961832061,0.11450381679389313,-0.3282442748091603
1646443428978.9907,0.0078125,0.0084228515625,-0.11798095703125,-0.6412213740458015,0.09923664122137404,-0.33587786259541985
1646443428979.5486,0.0078125,0.0084228515625,-0.11798095703125,-0.6412213740458015,0.09923664122137404,-0.33587786259541985
1646443428980.107,0.00823974609375,0.00677490234375,-0.11859130859375,-0.6106870229007634,0.03816793893129771,-0.366412213740458
1646443428980.6643,0.00823974609375,0.00677490234375,-0.11859130859375,-0.6106870229007634,0.03816793893129771,-0.366412213740458
1646443428981.2246,0.00872802734375,0.0068359375,-0.117919921875,-0.6564885496183206,-0.007633587786259542,-0.366412213740458
1646443428981.8066,0.00872802734375,0.0068359375,-0.117919921875,-0.6564885496183206,-0.007633587786259542,-0.366412213740458
1646443428982.366,0.00830078125,0.00946044921875,-0.1185302734375,-0.7633587786259542,-0.007633587786259542,-0.37404580152671757
1646443428982.9248,0.00775146484375,0.01214599609375,-0.12176513671875,-0.7786259541984732,0.05343511450381679,-0.3816793893129771
1646443428983.4856,0.00775146484375,0.01214599609375,-0.12176513671875,-0.7786259541984732,0.05343511450381679,-0.3816793893129771
1646443428984.0444,0.0078125,0.01263427734375,-0.1221923828125,-0.7175572519083969,0.08396946564885496,-0.35877862595419846
1646443428984.6023,0.0078125,0.01263427734375,-0.1221923828125,-0.7175572519083969,0.08396946564885496,-0.35877862595419846
1646443428985.1582,0.00762939453125,0.01214599609375,-0.11920166015625,-0.6183206106870229,0.06870229007633588,-0.3511450381679389
1646443428985.7166,0.00762939453125,0.01214599609375,-0.11920166015625,-0.6183206106870229,0.06870229007633588,-0.3511450381679389
1646443428986.2747,0.00750732421875,0.009765625,-0.117919921875,-0.6030534351145038,0.05343511450381679,-0.35877862595419846
1646443428986.8315,0.00750732421875,0.009765625,-0.117919921875,-0.6030534351145038,0.05343511450381679,-0.35877862595419846
1646443428987.3892,0.00628662109375,0.00872802734375,-0.11895751953125,-0.6030534351145038,0.06870229007633588,-0.366412213740458
1646443428987.9478,0.00775146484375,0.00787353515625,-0.11834716796875,-0.6106870229007634,0.0916030534351145,-0.35877862595419846
1646443428988.5083,0.00775146484375,0.00787353515625,-0.11834716796875,-0.6106870229007634,0.0916030534351145,-0.35877862595419846
1646443428989.0671,0.00811767578125,0.008056640625,-0.12078857421875,-0.6106870229007634,0.0916030534351145,-0.366412213740458
1646443428989.6248,0.00811767578125,0.008056640625,-0.12078857421875,-0.6106870229007634,0.0916030534351145,-0.366412213740458
1646443428990.1824,0.00933837890625,0.00823974609375,-0.1175537109375,-0.5877862595419847,0.04580152671755725,-0.366412213740458
1646443428990.7412,0.00933837890625,0.00823974609375,-0.1175537109375,-0.5877862595419847,0.04580152671755725,-0.366412213740458
1646443428991.301,0.0115966796875,0.0079345703125,-0.11285400390625,-0.6030534351145038,-0.015267175572519083,-0.366412213740458
1646443428991.8577,0.0115966796875,0.0079345703125,-0.11285400390625,-0.6030534351145038,-0.015267175572519083,-0.366412213740458
1646443428992.4153,0.01312255859375,0.0093994140625,-0.11376953125,-0.6030534351145038,-0.04580152671755725,-0.37404580152671757
1646443428992.973,0.01495361328125,0.010009765625,-0.11572265625,-0.5877862595419847,-0.0916030534351145,-0.3969465648854962
1646443428993.5269,0.01495361328125,0.010009765625,-0.11572265625,-0.5877862595419847,-0.0916030534351145,-0.3969465648854962
1646443428994.0813,0.01763916015625,0.0107421875,-0.115478515625,-0.6106870229007634,-0.21374045801526717,-0.40458015267175573
1646443428994.6357,0.01763916015625,0.0107421875,-0.115478515625,-0.6106870229007634,-0.21374045801526717,-0.40458015267175573
1646443428995.1917,0.01898193359375,0.010498046875,-0.11199951171875,-0.6946564885496184,-0.32061068702290074,-0.4122137404580153
1646443428995.7485,0.01898193359375,0.010498046875,-0.11199951171875,-0.6946564885496184,-0.32061068702290074,-0.4122137404580153
1646443428996.3042,0.0213623046875,0.01043701171875,-0.1104736328125,-0.7404580152671756,-0.4351145038167939,-0.42748091603053434
1646443428996.8613,0.0213623046875,0.01043701171875,-0.1104736328125,-0.7404580152671756,-0.4351145038167939,-0.42748091603053434
1646443428997.4172,0.02239990234375,0.01025390625,-0.1104736328125,-0.7099236641221374,-0.5190839694656488,-0.4122137404580153
1646443428997.9731,0.02264404296875,0.01531982421875,-0.11297607421875,-0.6946564885496184,-0.5801526717557252,-0.3282442748091603
1646443428998.639,0.02264404296875,0.01531982421875,-0.11297607421875,-0.6946564885496184,-0.5801526717557252,-0.3282442748091603
1646443428999.1997,0.0244140625,0.03057861328125,-0.11517333984375,-0.7786259541984732,-0.4732824427480916,0.015267175572519083
1646443428999.7563,0.0244140625,0.03057861328125,-0.11517333984375,-0.7786259541984732,-0.4732824427480916,0.015267175572519083
1646443429000.3135,0.02178955078125,0.03656005859375,-0.12310791015625,-0.7633587786259542,-0.061068702290076333,0.5419847328244275
1646443429000.8704,0.02178955078125,0.03656005859375,-0.12310791015625,-0.7633587786259542,-0.061068702290076333,0.5419847328244275
1646443429001.4294,0.01617431640625,0.03533935546875,-0.1341552734375,-0.6870229007633588,0.5038167938931297,1.0
1646443429001.9832,0.011962890625,0.03326416015625,-0.13055419921875,-0.6106870229007634,0.9236641221374046,1.297709923664122
1646443429002.5413,0.011962890625,0.03326416015625,-0.13055419921875,-0.6106870229007634,0.9236641221374046,1.297709923664122
1646443429003.0994,0.01080322265625,0.0303955078125,-0.12274169921875,-0.5267175572519084,0.9694656488549618,1.4580152671755726
1646443429003.6584,0.01080322265625,0.0303955078125,-0.12274169921875,-0.5267175572519084,0.9694656488549618,1.4580152671755726
1646443429004.218,0.01361083984375,0.025634765625,-0.11181640625,-0.4351145038167939,0.816793893129771,1.5801526717557253
1646443429004.7734,0.01361083984375,0.025634765625,-0.11181640625,-0.4351145038167939,0.816793893129771,1.5801526717557253
1646443429005.3308,0.01800537109375,0.01995849609375,-0.110595703125,-0.4122137404580153,0.8396946564885496,1.6946564885496183
1646443429005.888,0.01800537109375,0.01995849609375,-0.110595703125,-0.4122137404580153,0.8396946564885496,1.6946564885496183
1646443429006.4465,0.0234375,0.01702880859375,-0.11865234375,-0.42748091603053434,1.0,1.8091603053435115
1646443429006.9958,0.0277099609375,0.01715087890625,-0.123779296875,-0.3893129770992366,0.9541984732824428,1.8778625954198473
1646443429007.5537,0.0277099609375,0.01715087890625,-0.123779296875,-0.3893129770992366,0.9541984732824428,1.8778625954198473
1646443429008.1123,0.02825927734375,0.0164794921875,-0.120361328125,-0.4351145038167939,0.7175572519083969,1.9083969465648856
1646443429008.6711,0.02825927734375,0.0164794921875,-0.120361328125,-0.4351145038167939,0.7175572519083969,1.9083969465648856
1646443429009.2285,0.02911376953125,0.0167236328125,-0.11517333984375,-0.5572519083969466,0.3969465648854962,1.9389312977099236
1646443429009.7856,0.02911376953125,0.0167236328125,-0.11517333984375,-0.5572519083969466,0.3969465648854962,1.9389312977099236
1646443429010.3438,0.02850341796875,0.0169677734375,-0.10797119140625,-0.732824427480916,0.1450381679389313,2.0
1646443429010.8948,0.02850341796875,0.0169677734375,-0.10797119140625,-0.732824427480916,0.1450381679389313,2.0
1646443429011.4473,0.026123046875,0.01904296875,-0.1075439453125,-0.8702290076335878,-0.05343511450381679,2.0916030534351147
1646443429012.0042,0.02166748046875,0.0198974609375,-0.1156005859375,-0.8549618320610687,-0.1984732824427481,2.1603053435114505
1646443429012.5635,0.02166748046875,0.0198974609375,-0.1156005859375,-0.8549618320610687,-0.1984732824427481,2.1603053435114505
1646443429013.1213,0.01910400390625,0.0185546875,-0.11883544921875,-0.7633587786259542,-0.2824427480916031,2.2290076335877864
1646443429013.678,0.01910400390625,0.0185546875,-0.11883544921875,-0.7633587786259542,-0.2824427480916031,2.2290076335877864
1646443429014.2356,0.01544189453125,0.0164794921875,-0.118408203125,-0.732824427480916,-0.3435114503816794,2.2977099236641223
1646443429014.794,0.01544189453125,0.0164794921875,-0.118408203125,-0.732824427480916,-0.3435114503816794,2.2977099236641223
1646443429015.3513,0.0128173828125,0.01312255859375,-0.116455078125,-0.7557251908396947,-0.3435114503816794,2.366412213740458
1646443429015.9097,0.0106201171875,0.01220703125,-0.11785888671875,-0.7099236641221374,-0.2748091603053435,2.435114503816794
1646443429016.466,0.0106201171875,0.01220703125,-0.11785888671875,-0.7099236641221374,-0.2748091603053435,2.435114503816794
1646443429017.0247,0.00927734375,0.01263427734375,-0.120849609375,-0.5725190839694656,-0.20610687022900764,2.519083969465649
1646443429017.581,0.00927734375,0.01263427734375,-0.120849609375,-0.5725190839694656,-0.20610687022900764,2.519083969465649
1646443429018.139,0.0096435546875,0.01251220703125,-0.125732421875,-0.46564885496183206,-0.25190839694656486,2.595419847328244
1646443429018.6968,0.0096435546875,0.01251220703125,-0.125732421875,-0.46564885496183206,-0.25190839694656486,2.595419847328244
1646443429019.2554,0.01068115234375,0.012939453125,-0.1256103515625,-0.4961832061068702,-0.37404580152671757,2.633587786259542
1646443429019.813,0.01068115234375,0.012939453125,-0.1256103515625,-0.4961832061068702,-0.37404580152671757,2.633587786259542
1646443429020.3706,0.01141357421875,0.01409912109375,-0.1240234375,-0.6183206106870229,-0.5343511450381679,2.6946564885496183
1646443429020.9292,0.01177978515625,0.0123291015625,-0.11932373046875,-0.7480916030534351,-0.6335877862595419,2.7786259541984735
1646443429021.4888,0.01177978515625,0.0123291015625,-0.11932373046875,-0.7480916030534351,-0.6335877862595419,2.7786259541984735
1646443429022.0488,0.01165771484375,0.01275634765625,-0.1185302734375,-0.8320610687022901,-0.6183206106870229,2.8473282442748094
1646443429022.607,0.01165771484375,0.01275634765625,-0.1185302734375,-0.8320610687022901,-0.6183206106870229,2.8473282442748094
1646443429023.1658,0.0107421875,0.01318359375,-0.12103271484375,-0.8015267175572519,-0.5572519083969466,2.931297709923664
1646443429023.721,0.0107421875,0.01318359375,-0.12103271484375,-0.8015267175572519,-0.5572519083969466,2.931297709923664
1646443429024.2776,0.009521484375,0.0120849609375,-0.1170654296875,-0.7938931297709924,-0.549618320610687,2.9923664122137406
1646443429024.8347,0.009521484375,0.0120849609375,-0.1170654296875,-0.7938931297709924,-0.549618320610687,2.9923664122137406
1646443429025.3923,0.0096435546875,0.0108642578125,-0.113037109375,-0.9236641221374046,-0.5877862595419847,3.0381679389312977
1646443429025.9495,0.01043701171875,0.00958251953125,-0.1143798828125,-1.0763358778625953,-0.549618320610687,3.114503816793893
1646443429026.508,0.01043701171875,0.00958251953125,-0.1143798828125,-1.0763358778625953,-0.549618320610687,3.114503816793893
1646443429027.0652,0.01141357421875,0.01177978515625,-0.1195068359375,-1.0610687022900764,-0.44274809160305345,3.145038167938931
1646443429027.6235,0.01141357421875,0.01177978515625,-0.1195068359375,-1.0610687022900764,-0.44274809160305345,3.145038167938931
1646443429028.183,0.0113525390625,0.011962890625,-0.11810302734375,-0.9312977099236641,-0.3511450381679389,3.16793893129771
1646443429028.7393,0.0113525390625,0.011962890625,-0.11810302734375,-0.9312977099236641,-0.3511450381679389,3.16793893129771
1646443429029.3032,0.011962890625,0.0123291015625,-0.11444091796875,-0.8702290076335878,-0.3435114503816794,3.213740458015267
1646443429029.8628,0.011962890625,0.0123291015625,-0.11444091796875,-0.8702290076335878,-0.3435114503816794,3.213740458015267
1646443429030.4214,0.01336669921875,0.01165771484375,-0.114013671875,-0.9083969465648855,-0.32061068702290074,3.267175572519084
1646443429030.9802,0.0147705078125,0.01171875,-0.11358642578125,-0.9618320610687023,-0.2824427480916031,3.3053435114503817
1646443429031.539,0.0147705078125,0.01171875,-0.11358642578125,-0.9618320610687023,-0.2824427480916031,3.3053435114503817
1646443429032.0947,0.015869140625,0.0126953125,-0.11602783203125,-0.9541984732824428,-0.25190839694656486,3.3435114503816794
1646443429032.6543,0.015869140625,0.0126953125,-0.11602783203125,-0.9541984732824428,-0.25190839694656486,3.3435114503816794
1646443429033.212,0.01629638671875,0.01373291015625,-0.116455078125,-0.9236641221374046,-0.2748091603053435,3.404580152671756
1646443429033.77,0.01629638671875,0.01373291015625,-0.116455078125,-0.9236641221374046,-0.2748091603053435,3.404580152671756
1646443429034.3271,0.0159912109375,0.01275634765625,-0.11541748046875,-0.9618320610687023,-0.32061068702290074,3.450381679389313
1646443429035.047,0.0150146484375,0.0126953125,-0.11651611328125,-1.0381679389312977,-0.3282442748091603,3.5114503816793894
1646443429035.6094,0.0150146484375,0.0126953125,-0.11651611328125,-1.0381679389312977,-0.3282442748091603,3.5114503816793894
1646443429036.1694,0.01373291015625,0.0123291015625,-0.11651611328125,-1.0381679389312977,-0.33587786259541985,3.572519083969466
1646443429036.7312,0.01373291015625,0.0123291015625,-0.11651611328125,-1.0381679389312977,-0.33587786259541985,3.572519083969466
1646443429037.29,0.012939453125,0.01129150390625,-0.11578369140625,-0.9847328244274809,-0.3435114503816794,3.6259541984732824
1646443429037.8484,0.012939453125,0.01129150390625,-0.11578369140625,-0.9847328244274809,-0.3435114503816794,3.6259541984732824
1646443429038.4067,0.01129150390625,0.01214599609375,-0.11724853515625,-0.9847328244274809,-0.32061068702290074,3.6717557251908395
1646443429038.9673,0.009765625,0.01226806640625,-0.11798095703125,-0.9770992366412213,-0.32061068702290074,3.7099236641221376
1646443429039.525,0.009765625,0.01226806640625,-0.11798095703125,-0.9770992366412213,-0.32061068702290074,3.7099236641221376
1646443429040.0837,0.0093994140625,0.01202392578125,-0.11761474609375,-0.9618320610687023,-0.3053435114503817,3.7099236641221376
1646443429040.6423,0.0093994140625,0.01202392578125,-0.11761474609375,-0.9618320610687023,-0.3053435114503817,3.7099236641221376
1646443429041.2017,0.00885009765625,0.01239013671875,-0.1180419921875,-0.8625954198473282,-0.2748091603053435,3.7022900763358777
1646443429041.784,0.00885009765625,0.01239013671875,-0.1180419921875,-0.8625954198473282,-0.2748091603053435,3.7022900763358777
1646443429042.3428,0.008544921875,0.01226806640625,-0.11614990234375,-0.732824427480916,-0.22137404580152673,3.6946564885496183
1646443429042.9011,0.00732421875,0.01165771484375,-0.11700439453125,-0.6717557251908397,-0.17557251908396945,3.687022900763359
1646443429043.4587,0.00732421875,0.01165771484375,-0.11700439453125,-0.6717557251908397,-0.17557251908396945,3.687022900763359
1646443429044.0173,0.00714111328125,0.0118408203125,-0.1171875,-0.6259541984732825,-0.12213740458015267,3.6793893129770994
1646443429044.575,0.00714111328125,0.0118408203125,-0.1171875,-0.6259541984732825,-0.12213740458015267,3.6793893129770994
1646443429045.1316,0.0076904296875,0.01202392578125,-0.1173095703125,-0.5801526717557252,-0.1450381679389313,3.66412213740458
1646443429045.6892,0.0076904296875,0.01202392578125,-0.1173095703125,-0.5801526717557252,-0.1450381679389313,3.66412213740458
1646443429046.2476,0.00714111328125,0.0111083984375,-0.115966796875,-0.5038167938931297,-0.26717557251908397,3.6259541984732824
1646443429046.806,0.00714111328125,0.0111083984375,-0.115966796875,-0.5038167938931297,-0.26717557251908397,3.6259541984732824
1646443429047.365,0.00732421875,0.00927734375,-0.113037109375,-0.5343511450381679,-0.3053435114503817,3.5877862595419847
1646443429047.9194,0.00872802734375,0.00836181640625,-0.116943359375,-0.5877862595419847,-0.22900763358778625,3.549618320610687
1646443429048.4795,0.00872802734375,0.00836181640625,-0.116943359375,-0.5877862595419847,-0.22900763358778625,3.549618320610687
1646443429049.0378,0.0084228515625,0.0096435546875,-0.12054443359375,-0.5267175572519084,-0.16793893129770993,3.519083969465649
1646443429049.5974,0.0084228515625,0.0096435546875,-0.12054443359375,-0.5267175572519084,-0.16793893129770993,3.519083969465649
1646443429050.1555,0.00823974609375,0.00909423828125,-0.1199951171875,-0.4580152671755725,-0.25190839694656486,3.4580152671755724
1646443429050.7144,0.00823974609375,0.00909423828125,-0.1199951171875,-0.4580152671755725,-0.25190839694656486,3.4580152671755724
1646443429051.274,0.0069580078125,0.00726318359375,-0.11566162109375,-0.5038167938931297,-0.35877862595419846,3.381679389312977
1646443429051.832,0.0069580078125,0.00726318359375,-0.11566162109375,-0.5038167938931297,-0.35877862595419846,3.381679389312977
1646443429052.3909,0.00799560546875,0.005859375,-0.11566162109375,-0.5954198473282443,-0.3969465648854962,3.33587786259542
1646443429052.9468,0.007568359375,0.00616455078125,-0.118408203125,-0.6030534351145038,-0.33587786259541985,3.2748091603053435
1646443429053.5059,0.007568359375,0.00616455078125,-0.118408203125,-0.6030534351145038,-0.33587786259541985,3.2748091603053435
1646443429054.0632,0.0068359375,0.00634765625,-0.12127685546875,-0.48854961832061067,-0.3053435114503817,3.183206106870229
1646443429054.6208,0.0068359375,0.00634765625,-0.12127685546875,-0.48854961832061067,-0.3053435114503817,3.183206106870229
1646443429055.1763,0.005126953125,0.00592041015625,-0.1190185546875,-0.48091603053435117,-0.3816793893129771,3.1068702290076335
1646443429055.735,0.005126953125,0.00592041015625,-0.1190185546875,-0.48091603053435117,-0.3816793893129771,3.1068702290076335
1646443429056.2925,0.0047607421875,0.00439453125,-0.1175537109375,-0.5801526717557252,-0.46564885496183206,3.045801526717557
1646443429056.8503,0.0047607421875,0.00439453125,-0.1175537109375,-0.5801526717557252,-0.46564885496183206,3.045801526717557
1646443429057.4072,0.0032958984375,0.00433349609375,-0.11822509765625,-0.648854961832061,-0.4732824427480916,3.0
1646443429057.961,0.002197265625,0.00457763671875,-0.1181640625,-0.648854961832061,-0.46564885496183206,2.946564885496183
1646443429058.5168,0.002197265625,0.00457763671875,-0.1181640625,-0.648854961832061,-0.46564885496183206,2.946564885496183
1646443429059.0732,0.00103759765625,0.00439453125,-0.12017822265625,-0.6030534351145038,-0.4580152671755725,2.8702290076335877
1646443429059.6323,0.00103759765625,0.00439453125,-0.12017822265625,-0.6030534351145038,-0.4580152671755725,2.8702290076335877
1646443429060.1907,0.00042724609375,0.00335693359375,-0.1217041015625,-0.5877862595419847,-0.4351145038167939,2.7938931297709924
1646443429060.7512,0.00042724609375,0.00335693359375,-0.1217041015625,-0.5877862595419847,-0.4351145038167939,2.7938931297709924
1646443429061.3113,-0.00018310546875,0.00360107421875,-0.12176513671875,-0.6412213740458015,-0.4580152671755725,2.7251908396946565
1646443429061.8728,-0.00018310546875,0.00360107421875,-0.12176513671875,-0.6412213740458015,-0.4580152671755725,2.7251908396946565
1646443429062.4336,0.00018310546875,0.00299072265625,-0.12213134765625,-0.7022900763358778,-0.46564885496183206,2.66412213740458
1646443429062.994,-0.0008544921875,0.00433349609375,-0.1229248046875,-0.7175572519083969,-0.4351145038167939,2.6030534351145036
1646443429063.5532,-0.0008544921875,0.00433349609375,-0.1229248046875,-0.7175572519083969,-0.4351145038167939,2.6030534351145036
1646443429064.1143,-0.00103759765625,0.004638671875,-0.12225341796875,-0.7175572519083969,-0.40458015267175573,2.5572519083969465
1646443429064.6755,-0.00103759765625,0.004638671875,-0.12225341796875,-0.7175572519083969,-0.40458015267175573,2.5572519083969465
1646443429065.2375,-0.00048828125,0.004150390625,-0.12359619140625,-0.7099236641221374,-0.3435114503816794,2.519083969465649
1646443429065.7974,-0.00048828125,0.004150390625,-0.12359619140625,-0.7099236641221374,-0.3435114503816794,2.519083969465649
1646443429066.3577,-0.000244140625,0.00439453125,-0.1224365234375,-0.7022900763358778,-0.29770992366412213,2.4656488549618323
1646443429066.9185,-0.0003662109375,0.00390625,-0.1214599609375,-0.6946564885496184,-0.2900763358778626,2.404580152671756
1646443429067.4766,-0.0003662109375,0.00390625,-0.1214599609375,-0.6946564885496184,-0.2900763358778626,2.404580152671756
1646443429068.034,0.000244140625,0.0028076171875,-0.1190185546875,-0.7251908396946565,-0.2748091603053435,2.351145038167939
1646443429068.592,0.000244140625,0.0028076171875,-0.1190185546875,-0.7251908396946565,-0.2748091603053435,2.351145038167939
1646443429069.1516,0.0,0.00225830078125,-0.119873046875,-0.7633587786259542,-0.22900763358778625,2.2900763358778624
1646443429069.7068,0.0,0.00225830078125,-0.119873046875,-0.7633587786259542,-0.22900763358778625,2.2900763358778624
1646443429070.2622,0.00018310546875,0.00262451171875,-0.12286376953125,-0.7786259541984732,-0.16030534351145037,2.236641221374046
1646443429070.822,0.00018310546875,0.00262451171875,-0.12286376953125,-0.7786259541984732,-0.16030534351145037,2.236641221374046
1646443429071.5027,0.0009765625,0.00286865234375,-0.12139892578125,-0.7557251908396947,-0.12213740458015267,2.16793893129771
1646443429072.0652,0.00177001953125,0.0028076171875,-0.1190185546875,-0.732824427480916,-0.1297709923664122,2.099236641221374
1646443429072.626,0.00177001953125,0.0028076171875,-0.1190185546875,-0.732824427480916,-0.1297709923664122,2.099236641221374
1646443429073.1848,0.00146484375,0.00341796875,-0.117919921875,-0.7633587786259542,-0.15267175572519084,2.0610687022900764
1646443429073.7427,0.00146484375,0.00341796875,-0.117919921875,-0.7633587786259542,-0.15267175572519084,2.0610687022900764
1646443429074.3005,0.00201416015625,0.0032958984375,-0.11871337890625,-0.816793893129771,-0.1450381679389313,2.0229007633587788
1646443429074.8586,0.00201416015625,0.0032958984375,-0.11871337890625,-0.816793893129771,-0.1450381679389313,2.0229007633587788
1646443429075.4167,0.0020751953125,0.0028076171875,-0.12060546875,-0.8396946564885496,-0.10687022900763359,1.9618320610687023
1646443429075.974,0.0013427734375,0.00274658203125,-0.1199951171875,-0.8091603053435115,-0.10687022900763359,1.9083969465648856
1646443429076.535,0.0013427734375,0.00274658203125,-0.1199951171875,-0.8091603053435115,-0.10687022900763359,1.9083969465648856
1646443429077.0938,0.00140380859375,0.00250244140625,-0.11895751953125,-0.8015267175572519,-0.1450381679389313,1.8473282442748091
1646443429077.655,0.00140380859375,0.00250244140625,-0.11895751953125,-0.8015267175572519,-0.1450381679389313,1.8473282442748091
1646443429078.214,0.00128173828125,0.001220703125,-0.116455078125,-0.8549618320610687,-0.10687022900763359,1.7709923664122138
1646443429078.7742,0.00128173828125,0.001220703125,-0.116455078125,-0.8549618320610687,-0.10687022900763359,1.7709923664122138
1646443429079.3342,0.0010986328125,0.00164794921875,-0.1182861328125,-0.8702290076335878,-0.022900763358778626,1.702290076335878
1646443429079.896,0.00048828125,0.00225830078125,-0.12139892578125,-0.8320610687022901,0.022900763358778626,1.633587786259542
1646443429080.4546,0.00048828125,0.00225830078125,-0.12139892578125,-0.8320610687022901,0.022900763358778626,1.633587786259542
1646443429081.015,0.000732421875,0.00177001953125,-0.1182861328125,-0.8015267175572519,0.015267175572519083,1.5725190839694656
1646443429081.5745,0.000732421875,0.00177001953125,-0.1182861328125,-0.8015267175572519,0.015267175572519083,1.5725190839694656
1646443429082.1335,0.0009765625,0.001953125,-0.116943359375,-0.8396946564885496,0.022900763358778626,1.5190839694656488
1646443429082.691,0.0009765625,0.001953125,-0.116943359375,-0.8396946564885496,0.022900763358778626,1.5190839694656488
1646443429083.247,6.103515625e-05,0.0015869140625,-0.11810302734375,-0.8244274809160306,0.061068702290076333,1.450381679389313
1646443429083.8447,6.103515625e-05,0.0015869140625,-0.11810302734375,-0.8244274809160306,0.061068702290076333,1.450381679389313
1646443429084.41,0.00079345703125,0.0029296875,-0.1197509765625,-0.7633587786259542,0.09923664122137404,1.3740458015267176
1646443429084.9688,-0.0001220703125,0.0028076171875,-0.11663818359375,-0.7480916030534351,0.10687022900763359,1.3129770992366412
1646443429085.5303,-0.0001220703125,0.0028076171875,-0.11663818359375,-0.7480916030534351,0.10687022900763359,1.3129770992366412
1646443429086.092,-0.00103759765625,0.0023193359375,-0.117919921875,-0.7786259541984732,0.1297709923664122,1.2671755725190839
1646443429086.6504,-0.00103759765625,0.0023193359375,-0.117919921875,-0.7786259541984732,0.1297709923664122,1.2671755725190839
1646443429087.211,-0.00079345703125,0.0037841796875,-0.11968994140625,-0.7786259541984732,0.17557251908396945,1.1984732824427482
1646443429087.771,-0.00079345703125,0.0037841796875,-0.11968994140625,-0.7786259541984732,0.17557251908396945,1.1984732824427482
1646443429088.3318,-0.00140380859375,0.0029296875,-0.11846923828125,-0.7480916030534351,0.22900763358778625,1.1221374045801527
1646443429088.8904,-0.000732421875,0.0032958984375,-0.11871337890625,-0.7251908396946565,0.24427480916030533,1.0458015267175573
1646443429089.45,-0.000732421875,0.0032958984375,-0.11871337890625,-0.7251908396946565,0.24427480916030533,1.0458015267175573
1646443429090.0088,-0.00042724609375,0.00341796875,-0.11688232421875,-0.7022900763358778,0.25190839694656486,0.9770992366412213
1646443429090.5679,-0.00042724609375,0.00341796875,-0.11688232421875,-0.7022900763358778,0.25190839694656486,0.9770992366412213
1646443429091.1262,0.0001220703125,0.00384521484375,-0.11785888671875,-0.6793893129770993,0.29770992366412213,0.9007633587786259
1646443429091.7195,0.0001220703125,0.00384521484375,-0.11785888671875,-0.6793893129770993,0.29770992366412213,0.9007633587786259
1646443429092.2805,-0.0003662109375,0.00347900390625,-0.11883544921875,-0.6564885496183206,0.3282442748091603,0.8473282442748091
1646443429092.8398,-0.0003662109375,0.00347900390625,-0.11883544921875,-0.6564885496183206,0.3282442748091603,0.8473282442748091
1646443429093.3997,6.103515625e-05,0.00390625,-0.119140625,-0.6335877862595419,0.3282442748091603,0.7557251908396947
1646443429093.959,-0.000732421875,0.00335693359375,-0.11761474609375,-0.6412213740458015,0.32061068702290074,0.648854961832061
1646443429094.5193,-0.000732421875,0.00335693359375,-0.11761474609375,-0.6412213740458015,0.32061068702290074,0.648854961832061
1646443429095.078,-0.00079345703125,0.00341796875,-0.11602783203125,-0.648854961832061,0.3282442748091603,0.5725190839694656
1646443429095.637,-0.00079345703125,0.00341796875,-0.11602783203125,-0.648854961832061,0.3282442748091603,0.5725190839694656
1646443429096.1943,0.00018310546875,0.005126953125,-0.11859130859375,-0.6106870229007634,0.3511450381679389,0.48091603053435117
1646443429096.7532,0.00018310546875,0.005126953125,-0.11859130859375,-0.6106870229007634,0.3511450381679389,0.48091603053435117
1646443429097.3118,-0.000244140625,0.00537109375,-0.119140625,-0.5572519083969466,0.3816793893129771,0.37404580152671757
1646443429097.868,-0.000244140625,0.00537109375,-0.119140625,-0.5572519083969466,0.3816793893129771,0.37404580152671757
1646443429098.4243,0.00054931640625,0.00579833984375,-0.11871337890625,-0.5343511450381679,0.366412213740458,0.29770992366412213
1646443429098.9832,0.00018310546875,0.0057373046875,-0.11834716796875,-0.5572519083969466,0.33587786259541985,0.21374045801526717
1646443429099.544,0.00018310546875,0.0057373046875,-0.11834716796875,-0.5572519083969466,0.33587786259541985,0.21374045801526717
1646443429100.1038,0.00018310546875,0.005126953125,-0.1187744140625,-0.5954198473282443,0.29770992366412213,0.10687022900763359
1646443429100.6628,0.00018310546875,0.005126953125,-0.1187744140625,-0.5954198473282443,0.29770992366412213,0.10687022900763359
1646443429101.222,-0.0001220703125,0.0052490234375,-0.1199951171875,-0.5954198473282443,0.2824427480916031,0.007633587786259542
1646443429101.8035,-0.0001220703125,0.0052490234375,-0.1199951171875,-0.5954198473282443,0.2824427480916031,0.007633587786259542
1646443429102.364,-0.00079345703125,0.0054931640625,-0.118896484375,-0.5648854961832062,0.25190839694656486,-0.10687022900763359
1646443429102.9258,-0.0018310546875,0.00506591796875,-0.11834716796875,-0.5419847328244275,0.20610687022900764,-0.2366412213740458
1646443429103.4863,-0.0018310546875,0.00506591796875,-0.11834716796875,-0.5419847328244275,0.20610687022900764,-0.2366412213740458
1646443429104.048,-0.001708984375,0.0059814453125,-0.11798095703125,-0.5801526717557252,0.1984732824427481,-0.3282442748091603
1646443429104.6064,-0.001708984375,0.0059814453125,-0.11798095703125,-0.5801526717557252,0.1984732824427481,-0.3282442748091603
1646443429105.167,0.0,0.01019287109375,-0.12030029296875,-0.6183206106870229,0.2748091603053435,-0.37404580152671757
1646443429105.7197,0.0,0.01019287109375,-0.12030029296875,-0.6183206106870229,0.2748091603053435,-0.37404580152671757
1646443429106.274,-0.00018310546875,0.0118408203125,-0.12640380859375,-0.5419847328244275,0.3816793893129771,-0.35877862595419846
1646443429106.8345,-0.00018310546875,0.0118408203125,-0.12640380859375,-0.5419847328244275,0.3816793893129771,-0.35877862595419846
1646443429107.3955,0.00018310546875,0.01080322265625,-0.1256103515625,-0.44274809160305345,0.4580152671755725,-0.3435114503816794
1646443429108.0808,0.00042724609375,0.0093994140625,-0.12127685546875,-0.4351145038167939,0.5343511450381679,-0.3053435114503817
1646443429108.6438,0.00042724609375,0.0093994140625,-0.12127685546875,-0.4351145038167939,0.5343511450381679,-0.3053435114503817
1646443429109.206,0.00115966796875,0.00885009765625,-0.1214599609375,-0.5190839694656488,0.6030534351145038,-0.2748091603053435
1646443429109.7656,0.00115966796875,0.00885009765625,-0.1214599609375,-0.5190839694656488,0.6030534351145038,-0.2748091603053435
1646443429110.3264,0.002197265625,0.00970458984375,-0.12261962890625,-0.5343511450381679,0.6564885496183206,-0.2824427480916031
1646443429110.8845,0.002197265625,0.00970458984375,-0.12261962890625,-0.5343511450381679,0.6564885496183206,-0.2824427480916031
1646443429111.4438,0.00396728515625,0.0091552734375,-0.1229248046875,-0.48091603053435117,0.6717557251908397,-0.29770992366412213
1646443429112.0027,0.00567626953125,0.008544921875,-0.119873046875,-0.46564885496183206,0.7099236641221374,-0.29770992366412213
1646443429112.5613,0.00567626953125,0.008544921875,-0.119873046875,-0.46564885496183206,0.7099236641221374,-0.29770992366412213
1646443429113.1208,0.00775146484375,0.00823974609375,-0.1214599609375,-0.48091603053435117,0.7099236641221374,-0.2900763358778626
1646443429113.68,0.00775146484375,0.00823974609375,-0.1214599609375,-0.48091603053435117,0.7099236641221374,-0.2900763358778626
1646443429114.2388,0.009521484375,0.0089111328125,-0.12213134765625,-0.5038167938931297,0.6641221374045801,-0.29770992366412213
1646443429114.797,0.009521484375,0.0089111328125,-0.12213134765625,-0.5038167938931297,0.6641221374045801,-0.29770992366412213
1646443429115.3567,0.01123046875,0.00885009765625,-0.12078857421875,-0.549618320610687,0.5725190839694656,-0.31297709923664124
1646443429115.916,0.01129150390625,0.0098876953125,-0.11871337890625,-0.5954198473282443,0.5038167938931297,-0.32061068702290074
1646443429116.4758,0.01129150390625,0.0098876953125,-0.11871337890625,-0.5954198473282443,0.5038167938931297,-0.32061068702290074
1646443429117.035,0.0113525390625,0.00970458984375,-0.11590576171875,-0.6717557251908397,0.4351145038167939,-0.32061068702290074
1646443429117.5945,0.0113525390625,0.00970458984375,-0.11590576171875,-0.6717557251908397,0.4351145038167939,-0.32061068702290074
1646443429118.1528,0.01177978515625,0.009765625,-0.114990234375,-0.7099236641221374,0.3969465648854962,-0.33587786259541985
1646443429118.7112,0.01177978515625,0.009765625,-0.114990234375,-0.7099236641221374,0.3969465648854962,-0.33587786259541985
1646443429119.268,0.01171875,0.00921630859375,-0.117431640625,-0.6870229007633588,0.37404580152671757,-0.3511450381679389
1646443429119.8252,0.01171875,0.00921630859375,-0.117431640625,-0.6870229007633588,0.37404580152671757,-0.3511450381679389
1646443429120.3813,0.01141357421875,0.009521484375,-0.11749267578125,-0.6335877862595419,0.37404580152671757,-0.3435114503816794
1646443429120.9397,0.01055908203125,0.0091552734375,-0.1158447265625,-0.6335877862595419,0.3435114503816794,-0.3435114503816794
1646443429121.498,0.01055908203125,0.0091552734375,-0.1158447265625,-0.6335877862595419,0.3435114503816794,-0.3435114503816794
1646443429122.0562,0.01055908203125,0.00909423828125,-0.116455078125,-0.6793893129770993,0.33587786259541985,-0.3435114503816794
1646443429122.6157,0.01055908203125,0.00909423828125,-0.116455078125,-0.6793893129770993,0.33587786259541985,-0.3435114503816794
1646443429123.174,0.009521484375,0.00927734375,-0.11834716796875,-0.6564885496183206,0.31297709923664124,-0.3511450381679389
1646443429123.7314,0.009521484375,0.00927734375,-0.11834716796875,-0.6564885496183206,0.31297709923664124,-0.3511450381679389
1646443429124.2888,0.0093994140625,0.009033203125,-0.11749267578125,-0.6183206106870229,0.25190839694656486,-0.3511450381679389
1646443429124.8477,0.0093994140625,0.009033203125,-0.11749267578125,-0.6183206106870229,0.25190839694656486,-0.3511450381679389
1646443429125.4058,0.0086669921875,0.00885009765625,-0.1162109375,-0.6335877862595419,0.17557251908396945,-0.35877862595419846
1646443429125.9648,0.0076904296875,0.01025390625,-0.1187744140625,-0.6641221374045801,0.15267175572519084,-0.37404580152671757
1646443429126.5234,0.0076904296875,0.01025390625,-0.1187744140625,-0.6641221374045801,0.15267175572519084,-0.37404580152671757
1646443429127.0825,0.00701904296875,0.01019287109375,-0.117919921875,-0.6259541984732825,0.1984732824427481,-0.366412213740458
1646443429127.64,0.00701904296875,0.01019287109375,-0.117919921875,-0.6259541984732825,0.1984732824427481,-0.366412213740458
1646443429128.1985,0.0079345703125,0.010986328125,-0.1197509765625,-0.5877862595419847,0.21374045801526717,-0.3511450381679389
1646443429128.7563,0.0079345703125,0.010986328125,-0.1197509765625,-0.5877862595419847,0.21374045801526717,-0.3511450381679389
1646443429129.3137,0.00799560546875,0.0103759765625,-0.11993408203125,-0.5725190839694656,0.20610687022900764,-0.33587786259541985
1646443429129.8728,0.00799560546875,0.0103759765625,-0.11993408203125,-0.5725190839694656,0.20610687022900764,-0.33587786259541985
1646443429130.4316,0.00830078125,0.00982666015625,-0.117431640625,-0.5572519083969466,0.22137404580152673,-0.33587786259541985
1646443429130.9897,0.0091552734375,0.00958251953125,-0.11724853515625,-0.5343511450381679,0.25190839694656486,-0.33587786259541985
1646443429131.548,0.0091552734375,0.00958251953125,-0.11724853515625,-0.5343511450381679,0.25190839694656486,-0.33587786259541985
1646443429132.1077,0.0087890625,0.01080322265625,-0.11737060546875,-0.4961832061068702,0.2900763358778626,-0.3282442748091603
1646443429132.665,0.0087890625,0.01080322265625,-0.11737060546875,-0.4961832061068702,0.2900763358778626,-0.3282442748091603
1646443429133.2224,0.00994873046875,0.0108642578125,-0.11639404296875,-0.4580152671755725,0.3435114503816794,-0.3435114503816794
1646443429133.7808,0.00994873046875,0.0108642578125,-0.11639404296875,-0.4580152671755725,0.3435114503816794,-0.3435114503816794
1646443429134.3406,0.0106201171875,0.010498046875,-0.11444091796875,-0.45038167938931295,0.366412213740458,-0.3435114503816794
1646443429134.8982,0.01129150390625,0.009521484375,-0.11553955078125,-0.4122137404580153,0.37404580152671757,-0.3282442748091603
1646443429135.4583,0.01129150390625,0.009521484375,-0.11553955078125,-0.4122137404580153,0.37404580152671757,-0.3282442748091603
1646443429136.0166,0.0113525390625,0.00872802734375,-0.11529541015625,-0.3816793893129771,0.366412213740458,-0.33587786259541985
1646443429136.5767,0.0113525390625,0.00872802734375,-0.11529541015625,-0.3816793893129771,0.366412213740458,-0.33587786259541985
1646443429137.1355,0.01239013671875,0.0081787109375,-0.11474609375,-0.3893129770992366,0.3282442748091603,-0.3435114503816794
1646443429137.694,0.01239013671875,0.0081787109375,-0.11474609375,-0.3893129770992366,0.3282442748091603,-0.3435114503816794
1646443429138.2512,0.011474609375,0.00897216796875,-0.114990234375,-0.4351145038167939,0.3282442748091603,-0.33587786259541985
1646443429138.8096,0.011474609375,0.00897216796875,-0.114990234375,-0.4351145038167939,0.3282442748091603,-0.33587786259541985
1646443429139.368,0.01092529296875,0.00799560546875,-0.11590576171875,-0.4732824427480916,0.32061068702290074,-0.33587786259541985
1646443429139.9272,0.01141357421875,0.00787353515625,-0.11419677734375,-0.48854961832061067,0.29770992366412213,-0.3282442748091603
1646443429140.4885,0.01141357421875,0.00787353515625,-0.11419677734375,-0.48854961832061067,0.29770992366412213,-0.3282442748091603
1646443429141.0479,0.011962890625,0.00836181640625,-0.11444091796875,-0.5190839694656488,0.25190839694656486,-0.3282442748091603
1646443429141.609,0.011962890625,0.00836181640625,-0.11444091796875,-0.5190839694656488,0.25190839694656486,-0.3282442748091603
1646443429142.1672,0.0123291015625,0.00909423828125,-0.1146240234375,-0.5343511450381679,0.22900763358778625,-0.33587786259541985
1646443429142.728,0.0123291015625,0.00909423828125,-0.1146240234375,-0.5343511450381679,0.22900763358778625,-0.33587786259541985
1646443429143.2869,0.01171875,0.0093994140625,-0.11566162109375,-0.5419847328244275,0.21374045801526717,-0.3282442748091603
1646443429143.964,0.01116943359375,0.009765625,-0.11737060546875,-0.5572519083969466,0.183206106870229,-0.3511450381679389
1646443429144.524,0.01116943359375,0.009765625,-0.11737060546875,-0.5572519083969466,0.183206106870229,-0.3511450381679389
1646443429145.08,0.009521484375,0.00946044921875,-0.11700439453125,-0.6106870229007634,0.17557251908396945,-0.35877862595419846
1646443429145.639,0.009521484375,0.00946044921875,-0.11700439453125,-0.6106870229007634,0.17557251908396945,-0.35877862595419846
1646443429146.1975,0.0084228515625,0.0089111328125,-0.11590576171875,-0.6412213740458015,0.17557251908396945,-0.33587786259541985
1646443429146.7573,0.0084228515625,0.0089111328125,-0.11590576171875,-0.6412213740458015,0.17557251908396945,-0.33587786259541985
1646443429147.3162,0.00830078125,0.0096435546875,-0.117919921875,-0.6412213740458015,0.20610687022900764,-0.3435114503816794
1646443429147.8745,0.00830078125,0.0096435546875,-0.117919921875,-0.6412213740458015,0.20610687022900764,-0.3435114503816794
1646443429148.432,0.00775146484375,0.009521484375,-0.11920166015625,-0.6183206106870229,0.1984732824427481,-0.3435114503816794
1646443429148.991,0.00677490234375,0.00958251953125,-0.115966796875,-0.5954198473282443,0.17557251908396945,-0.32061068702290074
1646443429149.549,0.00677490234375,0.00958251953125,-0.115966796875,-0.5954198473282443,0.17557251908396945,-0.32061068702290074
1646443429150.1084,0.00701904296875,0.00933837890625,-0.1175537109375,-0.5954198473282443,0.183206106870229,-0.32061068702290074
1646443429150.667,0.00701904296875,0.00933837890625,-0.1175537109375,-0.5954198473282443,0.183206106870229,-0.32061068702290074
1646443429151.2258,0.00732421875,0.0096435546875,-0.1180419921875,-0.6259541984732825,0.21374045801526717,-0.3511450381679389
1646443429151.8188,0.00732421875,0.0096435546875,-0.1180419921875,-0.6259541984732825,0.21374045801526717,-0.3511450381679389
1646443429152.3772,0.0078125,0.0093994140625,-0.118896484375,-0.6335877862595419,0.22900763358778625,-0.3511450381679389
1646443429152.9397,0.00732421875,0.010009765625,-0.12127685546875,-0.6106870229007634,0.22900763358778625,-0.3511450381679389
1646443429153.5166,0.00732421875,0.010009765625,-0.12127685546875,-0.6106870229007634,0.22900763358778625,-0.3511450381679389
1646443429154.0781,0.0068359375,0.009521484375,-0.11944580078125,-0.5877862595419847,0.22137404580152673,-0.3435114503816794
1646443429154.6365,0.0068359375,0.009521484375,-0.11944580078125,-0.5877862595419847,0.22137404580152673,-0.3435114503816794
1646443429155.1953,0.00665283203125,0.009765625,-0.1185302734375,-0.6106870229007634,0.2366412213740458,-0.31297709923664124
1646443429155.7532,0.00665283203125,0.009765625,-0.1185302734375,-0.6106870229007634,0.2366412213740458,-0.31297709923664124
1646443429156.3132,0.00762939453125,0.0096435546875,-0.1199951171875,-0.6183206106870229,0.22900763358778625,-0.3282442748091603
1646443429156.8726,0.00762939453125,0.0096435546875,-0.1199951171875,-0.6183206106870229,0.22900763358778625,-0.3282442748091603
1646443429157.433,0.00836181640625,0.00982666015625,-0.1199951171875,-0.5725190839694656,0.22900763358778625,-0.3435114503816794
1646443429157.9924,0.00872802734375,0.0087890625,-0.11962890625,-0.5877862595419847,0.22137404580152673,-0.3511450381679389
1646443429158.5503,0.00872802734375,0.0087890625,-0.11962890625,-0.5877862595419847,0.22137404580152673,-0.3511450381679389
1646443429159.1074,0.00811767578125,0.00860595703125,-0.11785888671875,-0.6259541984732825,0.15267175572519084,-0.3435114503816794
1646443429159.6682,0.00811767578125,0.00860595703125,-0.11785888671875,-0.6259541984732825,0.15267175572519084,-0.3435114503816794
1646443429160.2283,0.00860595703125,0.00970458984375,-0.11895751953125,-0.648854961832061,0.06870229007633588,-0.33587786259541985
1646443429160.7878,0.00860595703125,0.00970458984375,-0.11895751953125,-0.648854961832061,0.06870229007633588,-0.33587786259541985
1646443429161.348,0.00823974609375,0.00970458984375,-0.11798095703125,-0.6717557251908397,0.007633587786259542,-0.3511450381679389
1646443429161.9062,0.00897216796875,0.01019287109375,-0.11810302734375,-0.6946564885496184,0.030534351145038167,-0.3435114503816794
1646443429162.4675,0.00897216796875,0.01019287109375,-0.11810302734375,-0.6946564885496184,0.030534351145038167,-0.3435114503816794
1646443429163.0273,0.0098876953125,0.010009765625,-0.12261962890625,-0.6412213740458015,0.06870229007633588,-0.33587786259541985
1646443429163.5874,0.0098876953125,0.010009765625,-0.12261962890625,-0.6412213740458015,0.06870229007633588,-0.33587786259541985
1646443429164.146,0.0086669921875,0.009521484375,-0.12127685546875,-0.6030534351145038,0.05343511450381679,-0.366412213740458
1646443429164.7043,0.0086669921875,0.009521484375,-0.12127685546875,-0.6030534351145038,0.05343511450381679,-0.366412213740458
1646443429165.2612,0.00885009765625,0.00860595703125,-0.11846923828125,-0.6259541984732825,-0.007633587786259542,-0.37404580152671757
1646443429165.8235,0.00885009765625,0.00860595703125,-0.11846923828125,-0.6259541984732825,-0.007633587786259542,-0.37404580152671757
1646443429166.3843,0.00836181640625,0.0089111328125,-0.11865234375,-0.6946564885496184,-0.030534351145038167,-0.35877862595419846
1646443429166.9456,0.00665283203125,0.00970458984375,-0.11981201171875,-0.732824427480916,-0.03816793893129771,-0.35877862595419846
1646443429167.5059,0.00665283203125,0.00970458984375,-0.11981201171875,-0.732824427480916,-0.03816793893129771,-0.35877862595419846
1646443429168.067,0.00592041015625,0.0101318359375,-0.12030029296875,-0.7251908396946565,-0.07633587786259542,-0.366412213740458
1646443429168.6255,0.00592041015625,0.0101318359375,-0.12030029296875,-0.7251908396946565,-0.07633587786259542,-0.366412213740458
1646443429169.1843,0.0054931640625,0.01019287109375,-0.1185302734375,-0.7633587786259542,-0.1297709923664122,-0.3969465648854962
1646443429169.7437,0.0054931640625,0.01019287109375,-0.1185302734375,-0.7633587786259542,-0.1297709923664122,-0.3969465648854962
1646443429170.303,0.00494384765625,0.00994873046875,-0.12005615234375,-0.7862595419847328,-0.1297709923664122,-0.3816793893129771
1646443429170.8638,0.00494384765625,0.00994873046875,-0.12005615234375,-0.7862595419847328,-0.1297709923664122,-0.3816793893129771
1646443429171.424,0.00567626953125,0.00958251953125,-0.1187744140625,-0.7786259541984732,-0.05343511450381679,-0.366412213740458
1646443429171.9841,0.005859375,0.00982666015625,-0.1209716796875,-0.7480916030534351,0.007633587786259542,-0.35877862595419846
1646443429172.542,0.005859375,0.00982666015625,-0.1209716796875,-0.7480916030534351,0.007633587786259542,-0.35877862595419846
1646443429173.1013,0.00408935546875,0.01141357421875,-0.1202392578125,-0.7099236641221374,0.0,-0.366412213740458
1646443429173.6555,0.00408935546875,0.01141357421875,-0.1202392578125,-0.7099236641221374,0.0,-0.366412213740458
1646443429174.2092,0.004150390625,0.01116943359375,-0.1171875,-0.7709923664122137,-0.061068702290076333,-0.37404580152671757
1646443429174.7673,0.004150390625,0.01116943359375,-0.1171875,-0.7709923664122137,-0.061068702290076333,-0.37404580152671757
1646443429175.3262,0.00616455078125,0.01043701171875,-0.11614990234375,-0.8396946564885496,-0.05343511450381679,-0.37404580152671757
1646443429175.8872,0.0074462890625,0.0096435546875,-0.119140625,-0.7786259541984732,0.04580152671755725,-0.35877862595419846
1646443429176.4458,0.0074462890625,0.0096435546875,-0.119140625,-0.7786259541984732,0.04580152671755725,-0.35877862595419846
1646443429177.003,0.00787353515625,0.00970458984375,-0.121337890625,-0.6564885496183206,0.15267175572519084,-0.3511450381679389
1646443429177.5613,0.00787353515625,0.00970458984375,-0.121337890625,-0.6564885496183206,0.15267175572519084,-0.3511450381679389
1646443429178.1196,0.007080078125,0.00958251953125,-0.11602783203125,-0.6183206106870229,0.16793893129770993,-0.35877862595419846
1646443429178.6775,0.007080078125,0.00958251953125,-0.11602783203125,-0.6183206106870229,0.16793893129770993,-0.35877862595419846
1646443429179.238,0.0079345703125,0.00860595703125,-0.113525390625,-0.7022900763358778,0.1450381679389313,-0.3435114503816794
1646443429179.9539,0.00872802734375,0.00811767578125,-0.1160888671875,-0.7786259541984732,0.16793893129770993,-0.3435114503816794
1646443429180.5183,0.00872802734375,0.00811767578125,-0.1160888671875,-0.7786259541984732,0.16793893129770993,-0.3435114503816794
1646443429181.0786,0.0089111328125,0.00921630859375,-0.1163330078125,-0.732824427480916,0.20610687022900764,-0.3435114503816794
1646443429181.6396,0.0089111328125,0.00921630859375,-0.1163330078125,-0.732824427480916,0.20610687022900764,-0.3435114503816794
1646443429182.1978,0.008544921875,0.00921630859375,-0.11761474609375,-0.6641221374045801,0.22900763358778625,-0.3435114503816794
1646443429182.7578,0.008544921875,0.00921630859375,-0.11761474609375,-0.6641221374045801,0.22900763358778625,-0.3435114503816794
1646443429183.3171,0.0091552734375,0.0087890625,-0.11639404296875,-0.6335877862595419,0.22137404580152673,-0.366412213740458
1646443429183.8745,0.0091552734375,0.0087890625,-0.11639404296875,-0.6335877862595419,0.22137404580152673,-0.366412213740458
1646443429184.4314,0.00897216796875,0.00897216796875,-0.1153564453125,-0.6717557251908397,0.21374045801526717,-0.3435114503816794
1646443429184.991,0.00970458984375,0.01025390625,-0.1148681640625,-0.6870229007633588,0.2366412213740458,-0.3435114503816794
1646443429185.5486,0.00970458984375,0.01025390625,-0.1148681640625,-0.6870229007633588,0.2366412213740458,-0.3435114503816794
1646443429186.1064,0.0108642578125,0.0091552734375,-0.11614990234375,-0.6641221374045801,0.2900763358778626,-0.33587786259541985
1646443429186.666,0.0108642578125,0.0091552734375,-0.11614990234375,-0.6641221374045801,0.2900763358778626,-0.33587786259541985
1646443429187.2246,0.01080322265625,0.00982666015625,-0.1171875,-0.6030534351145038,0.2900763358778626,-0.32061068702290074
1646443429187.783,0.01080322265625,0.00982666015625,-0.1171875,-0.6030534351145038,0.2900763358778626,-0.32061068702290074
1646443429188.3398,0.0101318359375,0.0106201171875,-0.1158447265625,-0.5801526717557252,0.2366412213740458,-0.33587786259541985
1646443429188.8997,0.009521484375,0.010009765625,-0.1138916015625,-0.5954198473282443,0.1450381679389313,-0.3435114503816794
1646443429189.4578,0.009521484375,0.010009765625,-0.1138916015625,-0.5954198473282443,0.1450381679389313,-0.3435114503816794
1646443429190.0166,0.011962890625,0.008544921875,-0.11383056640625,-0.648854961832061,0.16793893129770993,-0.33587786259541985
1646443429190.575,0.011962890625,0.008544921875,-0.11383056640625,-0.648854961832061,0.16793893129770993,-0.33587786259541985
1646443429191.1345,0.01055908203125,0.0091552734375,-0.11724853515625,-0.6641221374045801,0.2900763358778626,-0.33587786259541985
1646443429191.7258,0.01055908203125,0.0091552734375,-0.11724853515625,-0.6641221374045801,0.2900763358778626,-0.33587786259541985
1646443429192.2864,0.00909423828125,0.010009765625,-0.116943359375,-0.5572519083969466,0.2900763358778626,-0.3435114503816794
1646443429192.8455,0.00909423828125,0.010009765625,-0.116943359375,-0.5572519083969466,0.2900763358778626,-0.3435114503816794
1646443429193.4028,0.00872802734375,0.00927734375,-0.1158447265625,-0.549618320610687,0.19083969465648856,-0.33587786259541985
1646443429193.9639,0.009033203125,0.009033203125,-0.11468505859375,-0.6335877862595419,0.13740458015267176,-0.33587786259541985
1646443429194.5237,0.009033203125,0.009033203125,-0.11468505859375,-0.6335877862595419,0.13740458015267176,-0.33587786259541985
1646443429195.0842,0.00848388671875,0.0086669921875,-0.11798095703125,-0.6717557251908397,0.16030534351145037,-0.3435114503816794
1646443429195.6436,0.00848388671875,0.0086669921875,-0.11798095703125,-0.6717557251908397,0.16030534351145037,-0.3435114503816794
1646443429196.2046,0.00830078125,0.0093994140625,-0.1195068359375,-0.6335877862595419,0.20610687022900764,-0.33587786259541985
1646443429196.7632,0.00830078125,0.0093994140625,-0.1195068359375,-0.6335877862595419,0.20610687022900764,-0.33587786259541985
1646443429197.3228,0.00897216796875,0.00982666015625,-0.11981201171875,-0.5725190839694656,0.1984732824427481,-0.3435114503816794
1646443429197.8813,0.00897216796875,0.00982666015625,-0.11981201171875,-0.5725190839694656,0.1984732824427481,-0.3435114503816794
1646443429198.442,0.0081787109375,0.01055908203125,-0.11773681640625,-0.5801526717557252,0.16030534351145037,-0.3511450381679389
1646443429199.0015,0.00750732421875,0.00958251953125,-0.11627197265625,-0.648854961832061,0.12213740458015267,-0.3511450381679389
1646443429199.5618,0.00750732421875,0.00958251953125,-0.11627197265625,-0.648854961832061,0.12213740458015267,-0.3511450381679389
1646443429200.1208,0.008056640625,0.0091552734375,-0.117431640625,-0.6717557251908397,0.11450381679389313,-0.366412213740458
1646443429200.6785,0.008056640625,0.0091552734375,-0.117431640625,-0.6717557251908397,0.11450381679389313,-0.366412213740458
1646443429201.2356,0.00775146484375,0.0091552734375,-0.12103271484375,-0.6412213740458015,0.1297709923664122,-0.3435114503816794
1646443429201.8286,0.00775146484375,0.0091552734375,-0.12103271484375,-0.6412213740458015,0.1297709923664122,-0.3435114503816794
1646443429202.3894,0.00872802734375,0.00921630859375,-0.1224365234375,-0.6106870229007634,0.1450381679389313,-0.3511450381679389
1646443429202.949,0.00775146484375,0.0087890625,-0.119140625,-0.6259541984732825,0.1450381679389313,-0.3511450381679389
1646443429203.506,0.00775146484375,0.0087890625,-0.119140625,-0.6259541984732825,0.1450381679389313,-0.3511450381679389
1646443429204.0618,0.00738525390625,0.00982666015625,-0.11773681640625,-0.6564885496183206,0.11450381679389313,-0.3511450381679389
1646443429204.6226,0.00738525390625,0.00982666015625,-0.11773681640625,-0.6564885496183206,0.11450381679389313,-0.3511450381679389
1646443429205.1829,0.008056640625,0.00909423828125,-0.11895751953125,-0.6793893129770993,0.09923664122137404,-0.35877862595419846
1646443429205.7432,0.008056640625,0.00909423828125,-0.11895751953125,-0.6793893129770993,0.09923664122137404,-0.35877862595419846
1646443429206.303,0.00775146484375,0.00970458984375,-0.11859130859375,-0.6641221374045801,0.10687022900763359,-0.35877862595419846
1646443429206.8638,0.00775146484375,0.00970458984375,-0.11859130859375,-0.6641221374045801,0.10687022900763359,-0.35877862595419846
1646443429207.4243,0.0076904296875,0.00970458984375,-0.11944580078125,-0.648854961832061,0.0916030534351145,-0.3511450381679389
1646443429207.982,0.00848388671875,0.00946044921875,-0.1195068359375,-0.6793893129770993,0.0916030534351145,-0.3435114503816794
1646443429208.5398,0.00848388671875,0.00946044921875,-0.1195068359375,-0.6793893129770993,0.0916030534351145,-0.3435114503816794
1646443429209.0981,0.00872802734375,0.00927734375,-0.12017822265625,-0.6793893129770993,0.08396946564885496,-0.33587786259541985
1646443429209.6584,0.00872802734375,0.00927734375,-0.12017822265625,-0.6793893129770993,0.08396946564885496,-0.33587786259541985
1646443429210.2168,0.00830078125,0.009765625,-0.1187744140625,-0.6793893129770993,0.05343511450381679,-0.3435114503816794
1646443429210.7734,0.00830078125,0.009765625,-0.1187744140625,-0.6793893129770993,0.05343511450381679,-0.3435114503816794
1646443429211.3289,0.007568359375,0.0093994140625,-0.11859130859375,-0.6946564885496184,0.05343511450381679,-0.35877862595419846
1646443429211.8884,0.00775146484375,0.0096435546875,-0.11944580078125,-0.7022900763358778,0.04580152671755725,-0.35877862595419846
1646443429212.447,0.00775146484375,0.0096435546875,-0.11944580078125,-0.7022900763358778,0.04580152671755725,-0.35877862595419846
1646443429213.0068,0.0076904296875,0.0096435546875,-0.11956787109375,-0.7022900763358778,0.03816793893129771,-0.37404580152671757
1646443429213.5664,0.0076904296875,0.0096435546875,-0.11956787109375,-0.7022900763358778,0.03816793893129771,-0.37404580152671757
1646443429214.1265,0.00830078125,0.009765625,-0.11981201171875,-0.6870229007633588,0.030534351145038167,-0.366412213740458
1646443429214.6824,0.00830078125,0.009765625,-0.11981201171875,-0.6870229007633588,0.030534351145038167,-0.366412213740458
1646443429215.2402,0.00787353515625,0.01007080078125,-0.11895751953125,-0.6717557251908397,0.030534351145038167,-0.37404580152671757
1646443429215.918,0.0081787109375,0.009521484375,-0.11749267578125,-0.6717557251908397,0.030534351145038167,-0.35877862595419846
1646443429216.4885,0.0081787109375,0.009521484375,-0.11749267578125,-0.6717557251908397,0.030534351145038167,-0.35877862595419846
1646443429217.0747,0.007080078125,0.00885009765625,-0.11822509765625,-0.6870229007633588,0.022900763358778626,-0.35877862595419846
1646443429217.649,0.007080078125,0.00885009765625,-0.11822509765625,-0.6870229007633588,0.022900763358778626,-0.35877862595419846
1646443429218.2158,0.00701904296875,0.009765625,-0.117919921875,-0.6870229007633588,0.022900763358778626,-0.35877862595419846
1646443429218.7744,0.00701904296875,0.009765625,-0.117919921875,-0.6870229007633588,0.022900763358778626,-0.35877862595419846
1646443429219.3337,0.00762939453125,0.01025390625,-0.11785888671875,-0.6717557251908397,0.05343511450381679,-0.35877862595419846
1646443429219.8933,0.00701904296875,0.0101318359375,-0.118896484375,-0.6564885496183206,0.061068702290076333,-0.3511450381679389
1646443429220.4531,0.00701904296875,0.0101318359375,-0.118896484375,-0.6564885496183206,0.061068702290076333,-0.3511450381679389
1646443429221.0134,0.00732421875,0.0093994140625,-0.11785888671875,-0.6259541984732825,0.08396946564885496,-0.3511450381679389
1646443429221.5725,0.00732421875,0.0093994140625,-0.11785888671875,-0.6259541984732825,0.08396946564885496,-0.3511450381679389
1646443429222.1309,0.0074462890625,0.00885009765625,-0.11553955078125,-0.6183206106870229,0.09923664122137404,-0.35877862595419846
1646443429222.6897,0.0074462890625,0.00885009765625,-0.11553955078125,-0.6183206106870229,0.09923664122137404,-0.35877862595419846
1646443429223.2493,0.0072021484375,0.00933837890625,-0.11651611328125,-0.6259541984732825,0.11450381679389313,-0.3511450381679389
1646443429223.8088,0.0072021484375,0.00933837890625,-0.11651611328125,-0.6259541984732825,0.11450381679389313,-0.3511450381679389
1646443429224.3696,0.00701904296875,0.00933837890625,-0.11749267578125,-0.6183206106870229,0.13740458015267176,-0.3435114503816794
1646443429224.929,0.0074462890625,0.00909423828125,-0.11834716796875,-0.6183206106870229,0.16030534351145037,-0.3511450381679389
1646443429225.49,0.0074462890625,0.00909423828125,-0.11834716796875,-0.6183206106870229,0.16030534351145037,-0.3511450381679389
1646443429226.0498,0.00811767578125,0.00885009765625,-0.11834716796875,-0.6106870229007634,0.183206106870229,-0.3511450381679389
1646443429226.6099,0.00811767578125,0.00885009765625,-0.11834716796875,-0.6106870229007634,0.183206106870229,-0.3511450381679389
1646443429227.1685,0.00823974609375,0.0086669921875,-0.117431640625,-0.6106870229007634,0.21374045801526717,-0.3435114503816794
1646443429227.7283,0.00823974609375,0.0086669921875,-0.117431640625,-0.6106870229007634,0.21374045801526717,-0.3435114503816794
1646443429228.2861,0.008056640625,0.0089111328125,-0.11871337890625,-0.5801526717557252,0.21374045801526717,-0.33587786259541985
1646443429228.8455,0.008056640625,0.0089111328125,-0.11871337890625,-0.5801526717557252,0.21374045801526717,-0.33587786259541985
1646443429229.4045,0.00750732421875,0.00909423828125,-0.1173095703125,-0.5877862595419847,0.22900763358778625,-0.33587786259541985
1646443429229.965,0.00726318359375,0.009765625,-0.1170654296875,-0.6106870229007634,0.25190839694656486,-0.3511450381679389
1646443429230.5212,0.00726318359375,0.009765625,-0.1170654296875,-0.6106870229007634,0.25190839694656486,-0.3511450381679389
1646443429231.0784,0.00701904296875,0.0091552734375,-0.117919921875,-0.6106870229007634,0.2900763358778626,-0.3435114503816794
1646443429231.6367,0.00701904296875,0.0091552734375,-0.117919921875,-0.6106870229007634,0.2900763358778626,-0.3435114503816794
1646443429232.1946,0.00811767578125,0.00970458984375,-0.117919921875,-0.5725190839694656,0.33587786259541985,-0.31297709923664124
1646443429232.7544,0.00811767578125,0.00970458984375,-0.117919921875,-0.5725190839694656,0.33587786259541985,-0.31297709923664124
1646443429233.3137,0.008056640625,0.0096435546875,-0.11834716796875,-0.549618320610687,0.35877862595419846,-0.3053435114503817
1646443429233.873,0.008056640625,0.0096435546875,-0.11834716796875,-0.549618320610687,0.35877862595419846,-0.3053435114503817
1646443429234.4312,0.00799560546875,0.0096435546875,-0.1182861328125,-0.549618320610687,0.366412213740458,-0.31297709923664124
1646443429234.9912,0.0078125,0.0096435546875,-0.1181640625,-0.5572519083969466,0.366412213740458,-0.33587786259541985
1646443429235.5483,0.0078125,0.0096435546875,-0.1181640625,-0.5572519083969466,0.366412213740458,-0.33587786259541985
1646443429236.1057,0.00750732421875,0.00970458984375,-0.11590576171875,-0.5725190839694656,0.33587786259541985,-0.3435114503816794
1646443429236.665,0.00750732421875,0.00970458984375,-0.11590576171875,-0.5725190839694656,0.33587786259541985,-0.3435114503816794
1646443429237.225,0.0078125,0.010009765625,-0.11810302734375,-0.6030534351145038,0.3511450381679389,-0.3435114503816794
1646443429237.7808,0.0078125,0.010009765625,-0.11810302734375,-0.6030534351145038,0.3511450381679389,-0.3435114503816794
1646443429238.3384,0.00836181640625,0.00970458984375,-0.1202392578125,-0.5801526717557252,0.3816793893129771,-0.3282442748091603
1646443429238.899,0.00787353515625,0.0101318359375,-0.1202392578125,-0.549618320610687,0.3816793893129771,-0.33587786259541985
1646443429239.4578,0.00787353515625,0.0101318359375,-0.1202392578125,-0.549618320610687,0.3816793893129771,-0.33587786259541985
1646443429240.0168,0.008056640625,0.0098876953125,-0.11883544921875,-0.5572519083969466,0.35877862595419846,-0.33587786259541985
1646443429240.5754,0.008056640625,0.0098876953125,-0.11883544921875,-0.5572519083969466,0.35877862595419846,-0.33587786259541985
1646443429241.1357,0.00787353515625,0.00897216796875,-0.11566162109375,-0.5877862595419847,0.33587786259541985,-0.32061068702290074
1646443429241.721,0.00787353515625,0.00897216796875,-0.11566162109375,-0.5877862595419847,0.33587786259541985,-0.32061068702290074
1646443429242.2822,0.00885009765625,0.0101318359375,-0.118408203125,-0.5877862595419847,0.3282442748091603,-0.3282442748091603
1646443429242.84,0.00885009765625,0.0101318359375,-0.118408203125,-0.5877862595419847,0.3282442748091603,-0.3282442748091603
1646443429243.3982,0.0089111328125,0.0106201171875,-0.12017822265625,-0.5801526717557252,0.3282442748091603,-0.3282442748091603
1646443429243.957,0.0079345703125,0.009765625,-0.119873046875,-0.5648854961832062,0.3053435114503817,-0.3282442748091603
1646443429244.5144,0.0079345703125,0.009765625,-0.119873046875,-0.5648854961832062,0.3053435114503817,-0.3282442748091603
1646443429245.0703,0.0078125,0.009521484375,-0.11865234375,-0.5572519083969466,0.2824427480916031,-0.32061068702290074
1646443429245.6292,0.0078125,0.009521484375,-0.11865234375,-0.5572519083969466,0.2824427480916031,-0.32061068702290074
1646443429246.1855,0.00848388671875,0.0096435546875,-0.11822509765625,-0.5572519083969466,0.25190839694656486,-0.3282442748091603
1646443429246.7456,0.00848388671875,0.0096435546875,-0.11822509765625,-0.5572519083969466,0.25190839694656486,-0.3282442748091603
1646443429247.3042,0.00836181640625,0.010009765625,-0.1177978515625,-0.5801526717557252,0.25190839694656486,-0.33587786259541985
1646443429247.8633,0.00836181640625,0.010009765625,-0.1177978515625,-0.5801526717557252,0.25190839694656486,-0.33587786259541985
1646443429248.4226,0.0087890625,0.010009765625,-0.11773681640625,-0.5877862595419847,0.2595419847328244,-0.33587786259541985
1646443429248.9807,0.00933837890625,0.01019287109375,-0.11968994140625,-0.5877862595419847,0.2366412213740458,-0.3511450381679389
1646443429249.541,0.00933837890625,0.01019287109375,-0.11968994140625,-0.5877862595419847,0.2366412213740458,-0.3511450381679389
1646443429250.0994,0.008544921875,0.010009765625,-0.11944580078125,-0.5877862595419847,0.1984732824427481,-0.3435114503816794
1646443429250.658,0.008544921875,0.010009765625,-0.11944580078125,-0.5877862595419847,0.1984732824427481,-0.3435114503816794
1646443429251.2156,0.0087890625,0.00921630859375,-0.11724853515625,-0.5954198473282443,0.16030534351145037,-0.33587786259541985
1646443429251.99,0.0096435546875,0.00927734375,-0.11846923828125,-0.6106870229007634,0.1450381679389313,-0.33587786259541985
1646443429252.5513,0.0096435546875,0.00927734375,-0.11846923828125,-0.6106870229007634,0.1450381679389313,-0.33587786259541985
1646443429253.1108,0.0089111328125,0.00982666015625,-0.11785888671875,-0.6259541984732825,0.12213740458015267,-0.33587786259541985
1646443429253.671,0.0089111328125,0.00982666015625,-0.11785888671875,-0.6259541984732825,0.12213740458015267,-0.33587786259541985
1646443429254.2292,0.0086669921875,0.0101318359375,-0.11749267578125,-0.6183206106870229,0.11450381679389313,-0.33587786259541985
1646443429254.789,0.0086669921875,0.0101318359375,-0.11749267578125,-0.6183206106870229,0.11450381679389313,-0.33587786259541985
1646443429255.348,0.0086669921875,0.0103759765625,-0.1190185546875,-0.6106870229007634,0.11450381679389313,-0.3511450381679389
1646443429255.907,0.0089111328125,0.00933837890625,-0.11993408203125,-0.5954198473282443,0.12213740458015267,-0.35877862595419846
1646443429256.4656,0.0089111328125,0.00933837890625,-0.11993408203125,-0.5954198473282443,0.12213740458015267,-0.35877862595419846
1646443429257.026,0.00897216796875,0.00946044921875,-0.1187744140625,-0.5801526717557252,0.10687022900763359,-0.35877862595419846
1646443429257.585,0.00897216796875,0.00946044921875,-0.1187744140625,-0.5801526717557252,0.10687022900763359,-0.35877862595419846
1646443429258.1448,0.008544921875,0.00994873046875,-0.11572265625,-0.6259541984732825,0.06870229007633588,-0.35877862595419846
1646443429258.7034,0.008544921875,0.00994873046875,-0.11572265625,-0.6259541984732825,0.06870229007633588,-0.35877862595419846
1646443429259.263,0.00836181640625,0.0096435546875,-0.1165771484375,-0.6717557251908397,0.08396946564885496,-0.366412213740458
1646443429259.82,0.00836181640625,0.0096435546875,-0.1165771484375,-0.6717557251908397,0.08396946564885496,-0.366412213740458
1646443429260.3762,0.00848388671875,0.009521484375,-0.1181640625,-0.648854961832061,0.10687022900763359,-0.3435114503816794
1646443429260.9336,0.00836181640625,0.0098876953125,-0.11968994140625,-0.6183206106870229,0.0916030534351145,-0.3511450381679389
1646443429261.493,0.00836181640625,0.0098876953125,-0.11968994140625,-0.6183206106870229,0.0916030534351145,-0.3511450381679389
1646443429262.0513,0.0086669921875,0.00994873046875,-0.11773681640625,-0.6030534351145038,0.061068702290076333,-0.366412213740458
1646443429262.6099,0.0086669921875,0.00994873046875,-0.11773681640625,-0.6030534351145038,0.061068702290076333,-0.366412213740458
1646443429263.1697,0.00836181640625,0.0093994140625,-0.1170654296875,-0.6259541984732825,0.061068702290076333,-0.3435114503816794
1646443429263.729,0.00836181640625,0.0093994140625,-0.1170654296875,-0.6259541984732825,0.061068702290076333,-0.3435114503816794
1646443429264.2886,0.0087890625,0.00946044921875,-0.11724853515625,-0.6564885496183206,0.04580152671755725,-0.3435114503816794
1646443429264.8467,0.0087890625,0.00946044921875,-0.11724853515625,-0.6564885496183206,0.04580152671755725,-0.3435114503816794
1646443429265.4053,0.00933837890625,0.009765625,-0.1181640625,-0.6641221374045801,0.07633587786259542,-0.3435114503816794
1646443429265.9612,0.0086669921875,0.00958251953125,-0.1171875,-0.6412213740458015,0.06870229007633588,-0.35877862595419846
1646443429266.5195,0.0086669921875,0.00958251953125,-0.1171875,-0.6412213740458015,0.06870229007633588,-0.35877862595419846
1646443429267.076,0.00872802734375,0.0091552734375,-0.11712646484375,-0.6183206106870229,0.05343511450381679,-0.366412213740458
1646443429267.634,0.00872802734375,0.0091552734375,-0.11712646484375,-0.6183206106870229,0.05343511450381679,-0.366412213740458
1646443429268.191,0.00885009765625,0.00921630859375,-0.11749267578125,-0.6183206106870229,0.06870229007633588,-0.37404580152671757
1646443429268.7507,0.00885009765625,0.00921630859375,-0.11749267578125,-0.6183206106870229,0.06870229007633588,-0.37404580152671757
1646443429269.31,0.00860595703125,0.00946044921875,-0.1171875,-0.6259541984732825,0.08396946564885496,-0.35877862595419846
1646443429269.8662,0.00860595703125,0.00946044921875,-0.1171875,-0.6259541984732825,0.08396946564885496,-0.35877862595419846
1646443429270.4243,0.00872802734375,0.00970458984375,-0.115966796875,-0.6335877862595419,0.06870229007633588,-0.3435114503816794
1646443429270.9824,0.00897216796875,0.00927734375,-0.117431640625,-0.6259541984732825,0.06870229007633588,-0.366412213740458
1646443429271.5408,0.00897216796875,0.00927734375,-0.117431640625,-0.6259541984732825,0.06870229007633588,-0.366412213740458
1646443429272.0989,0.0087890625,0.0093994140625,-0.1177978515625,-0.6259541984732825,0.05343511450381679,-0.3816793893129771
1646443429272.6565,0.0087890625,0.0093994140625,-0.1177978515625,-0.6259541984732825,0.05343511450381679,-0.3816793893129771
1646443429273.2126,0.00927734375,0.0091552734375,-0.1162109375,-0.6335877862595419,0.06870229007633588,-0.366412213740458
1646443429273.7695,0.00927734375,0.0091552734375,-0.1162109375,-0.6335877862595419,0.06870229007633588,-0.366412213740458
1646443429274.3247,0.0089111328125,0.00921630859375,-0.11669921875,-0.6259541984732825,0.08396946564885496,-0.37404580152671757
1646443429274.8853,0.0086669921875,0.009765625,-0.117431640625,-0.6106870229007634,0.0916030534351145,-0.3435114503816794
1646443429275.4407,0.0086669921875,0.009765625,-0.117431640625,-0.6106870229007634,0.0916030534351145,-0.3435114503816794
1646443429275.9976,0.00927734375,0.010009765625,-0.11724853515625,-0.6030534351145038,0.09923664122137404,-0.33587786259541985
1646443429276.556,0.00927734375,0.010009765625,-0.11724853515625,-0.6030534351145038,0.09923664122137404,-0.33587786259541985
1646443429277.115,0.0091552734375,0.00994873046875,-0.115966796875,-0.6030534351145038,0.08396946564885496,-0.3511450381679389
1646443429277.672,0.0091552734375,0.00994873046875,-0.115966796875,-0.6030534351145038,0.08396946564885496,-0.3511450381679389
1646443429278.2297,0.00927734375,0.00946044921875,-0.11773681640625,-0.5954198473282443,0.09923664122137404,-0.366412213740458
1646443429278.7874,0.00927734375,0.00946044921875,-0.11773681640625,-0.5954198473282443,0.09923664122137404,-0.366412213740458
1646443429279.345,0.00885009765625,0.0093994140625,-0.11785888671875,-0.5725190839694656,0.0916030534351145,-0.366412213740458
1646443429279.9038,0.00909423828125,0.010009765625,-0.11749267578125,-0.5572519083969466,0.0916030534351145,-0.35877862595419846
1646443429280.4622,0.00909423828125,0.010009765625,-0.11749267578125,-0.5572519083969466,0.0916030534351145,-0.35877862595419846
1646443429281.0217,0.0078125,0.00909423828125,-0.1175537109375,-0.5648854961832062,0.0916030534351145,-0.3435114503816794
1646443429281.5793,0.0078125,0.00909423828125,-0.1175537109375,-0.5648854961832062,0.0916030534351145,-0.3435114503816794
1646443429282.1367,0.008056640625,0.0096435546875,-0.117431640625,-0.5877862595419847,0.11450381679389313,-0.3435114503816794
1646443429282.6938,0.008056640625,0.0096435546875,-0.117431640625,-0.5877862595419847,0.11450381679389313,-0.3435114503816794
1646443429283.2524,0.00885009765625,0.009521484375,-0.118408203125,-0.5954198473282443,0.12213740458015267,-0.3511450381679389
1646443429283.8103,0.00885009765625,0.009521484375,-0.118408203125,-0.5954198473282443,0.12213740458015267,-0.3511450381679389
1646443429284.3694,0.00848388671875,0.0096435546875,-0.1182861328125,-0.5648854961832062,0.13740458015267176,-0.3511450381679389
1646443429284.9282,0.0091552734375,0.00970458984375,-0.11712646484375,-0.5267175572519084,0.11450381679389313,-0.37404580152671757
1646443429285.4883,0.0091552734375,0.00970458984375,-0.11712646484375,-0.5267175572519084,0.11450381679389313,-0.37404580152671757
1646443429286.0483,0.00872802734375,0.01007080078125,-0.1165771484375,-0.5419847328244275,0.08396946564885496,-0.35877862595419846
1646443429286.607,0.00872802734375,0.01007080078125,-0.1165771484375,-0.5419847328244275,0.08396946564885496,-0.35877862595419846
1646443429287.1646,0.008056640625,0.00921630859375,-0.116455078125,-0.5801526717557252,0.0916030534351145,-0.33587786259541985
1646443429287.8403,0.008056640625,0.00921630859375,-0.116455078125,-0.5801526717557252,0.0916030534351145,-0.33587786259541985
1646443429288.403,0.00848388671875,0.00927734375,-0.1181640625,-0.5801526717557252,0.12213740458015267,-0.3435114503816794
1646443429288.9597,0.00799560546875,0.010009765625,-0.11883544921875,-0.5648854961832062,0.12213740458015267,-0.35877862595419846
1646443429289.5217,0.00799560546875,0.010009765625,-0.11883544921875,-0.5648854961832062,0.12213740458015267,-0.35877862595419846
1646443429290.0815,0.008056640625,0.00958251953125,-0.11810302734375,-0.549618320610687,0.10687022900763359,-0.35877862595419846
1646443429290.642,0.008056640625,0.00958251953125,-0.11810302734375,-0.549618320610687,0.10687022900763359,-0.35877862595419846
1646443429291.2004,0.00860595703125,0.009765625,-0.1173095703125,-0.5648854961832062,0.08396946564885496,-0.35877862595419846
1646443429291.7932,0.00860595703125,0.009765625,-0.1173095703125,-0.5648854961832062,0.08396946564885496,-0.35877862595419846
1646443429292.351,0.00860595703125,0.00982666015625,-0.11761474609375,-0.5801526717557252,0.061068702290076333,-0.3511450381679389
1646443429292.9104,0.00872802734375,0.0096435546875,-0.1175537109375,-0.5801526717557252,0.06870229007633588,-0.3511450381679389
1646443429293.4683,0.00872802734375,0.0096435546875,-0.1175537109375,-0.5801526717557252,0.06870229007633588,-0.3511450381679389
1646443429294.0261,0.00897216796875,0.01025390625,-0.1177978515625,-0.5725190839694656,0.07633587786259542,-0.35877862595419846
1646443429294.585,0.00897216796875,0.01025390625,-0.1177978515625,-0.5725190839694656,0.07633587786259542,-0.35877862595419846
1646443429295.1423,0.00909423828125,0.00970458984375,-0.11798095703125,-0.5648854961832062,0.07633587786259542,-0.35877862595419846
1646443429295.7034,0.00909423828125,0.00970458984375,-0.11798095703125,-0.5648854961832062,0.07633587786259542,-0.35877862595419846
1646443429296.2632,0.008544921875,0.009765625,-0.117919921875,-0.5725190839694656,0.06870229007633588,-0.35877862595419846
1646443429296.8206,0.008544921875,0.009765625,-0.117919921875,-0.5725190839694656,0.06870229007633588,-0.35877862595419846
1646443429297.3784,0.0078125,0.00909423828125,-0.1173095703125,-0.5725190839694656,0.061068702290076333,-0.3511450381679389
1646443429297.9375,0.0084228515625,0.00933837890625,-0.11859130859375,-0.5648854961832062,0.03816793893129771,-0.366412213740458
1646443429298.4956,0.0084228515625,0.00933837890625,-0.11859130859375,-0.5648854961832062,0.03816793893129771,-0.366412213740458
1646443429299.0557,0.00958251953125,0.00933837890625,-0.1197509765625,-0.5801526717557252,0.030534351145038167,-0.37404580152671757
1646443429299.6147,0.00958251953125,0.00933837890625,-0.1197509765625,-0.5801526717557252,0.030534351145038167,-0.37404580152671757
1646443429300.176,0.0086669921875,0.009521484375,-0.11907958984375,-0.5877862595419847,0.030534351145038167,-0.366412213740458
1646443429300.7346,0.0086669921875,0.009521484375,-0.11907958984375,-0.5877862595419847,0.030534351145038167,-0.366412213740458
1646443429301.2952,0.0084228515625,0.00927734375,-0.11761474609375,-0.5877862595419847,0.015267175572519083,-0.366412213740458
1646443429301.8528,0.0084228515625,0.00927734375,-0.11761474609375,-0.5877862595419847,0.015267175572519083,-0.366412213740458
1646443429302.4116,0.00823974609375,0.009033203125,-0.11956787109375,-0.5648854961832062,0.015267175572519083,-0.37404580152671757
1646443429302.9734,0.00775146484375,0.010009765625,-0.11920166015625,-0.5419847328244275,0.03816793893129771,-0.35877862595419846
1646443429303.5325,0.00775146484375,0.010009765625,-0.11920166015625,-0.5419847328244275,0.03816793893129771,-0.35877862595419846
1646443429304.0928,0.008056640625,0.00970458984375,-0.11798095703125,-0.5572519083969466,0.04580152671755725,-0.3511450381679389
1646443429304.6511,0.008056640625,0.00970458984375,-0.11798095703125,-0.5572519083969466,0.04580152671755725,-0.3511450381679389
1646443429305.2107,0.0079345703125,0.00958251953125,-0.11798095703125,-0.5801526717557252,0.04580152671755725,-0.3511450381679389
1646443429305.7693,0.0079345703125,0.00958251953125,-0.11798095703125,-0.5801526717557252,0.04580152671755725,-0.3511450381679389
1646443429306.3293,0.00714111328125,0.00921630859375,-0.1187744140625,-0.5954198473282443,0.05343511450381679,-0.3435114503816794
1646443429306.8877,0.00762939453125,0.0096435546875,-0.11822509765625,-0.5877862595419847,0.04580152671755725,-0.3511450381679389
1646443429307.4482,0.00762939453125,0.0096435546875,-0.11822509765625,-0.5877862595419847,0.04580152671755725,-0.3511450381679389
1646443429308.0068,0.008056640625,0.00982666015625,-0.1180419921875,-0.5572519083969466,0.05343511450381679,-0.3511450381679389
1646443429308.5652,0.008056640625,0.00982666015625,-0.1180419921875,-0.5572519083969466,0.05343511450381679,-0.3511450381679389
1646443429309.123,0.00836181640625,0.009033203125,-0.1177978515625,-0.549618320610687,0.06870229007633588,-0.35877862595419846
1646443429309.6802,0.00836181640625,0.009033203125,-0.1177978515625,-0.549618320610687,0.06870229007633588,-0.35877862595419846
1646443429310.2378,0.0078125,0.0091552734375,-0.1171875,-0.5572519083969466,0.061068702290076333,-0.35877862595419846
1646443429310.7937,0.0078125,0.0091552734375,-0.1171875,-0.5572519083969466,0.061068702290076333,-0.35877862595419846
