timestamp,acc_x,acc_y,acc_z,gyr_x,gyr_y,gyr_z
1646443353212.0945,-0.1224365234375,-0.009033203125,0.00909423828125,-0.5801526717557252,0.20610687022900764,-0.37404580152671757
1646443353212.867,-0.12109375,-0.00848388671875,0.00970458984375,-0.6030534351145038,0.183206106870229,-0.366412213740458
1646443353213.4324,-0.12091064453125,-0.00830078125,0.00970458984375,-0.6030534351145038,0.16030534351145037,-0.3511450381679389
1646443353213.9912,-0.12091064453125,-0.00830078125,0.00970458984375,-0.6030534351145038,0.16030534351145037,-0.3511450381679389
1646443353214.5476,-0.12103271484375,-0.00830078125,0.01007080078125,-0.5954198473282443,0.16793893129770993,-0.3511450381679389
1646443353215.1057,-0.12103271484375,-0.00830078125,0.01007080078125,-0.5954198473282443,0.16793893129770993,-0.3511450381679389
1646443353215.6619,-0.1209716796875,-0.00872802734375,0.00933837890625,-0.6030534351145038,0.183206106870229,-0.35877862595419846
1646443353216.2195,-0.1209716796875,-0.00872802734375,0.00933837890625,-0.6030534351145038,0.183206106870229,-0.35877862595419846
1646443353216.7847,-0.12158203125,-0.008544921875,0.00933837890625,-0.5877862595419847,0.1984732824427481,-0.37404580152671757
1646443353217.3574,-0.1217041015625,-0.0089111328125,0.008544921875,-0.5954198473282443,0.1984732824427481,-0.3816793893129771
1646443353217.9202,-0.1217041015625,-0.0089111328125,0.008544921875,-0.5954198473282443,0.1984732824427481,-0.3816793893129771
1646443353218.4775,-0.12078857421875,-0.00921630859375,0.0074462890625,-0.6030534351145038,0.183206106870229,-0.37404580152671757
1646443353219.0327,-0.12078857421875,-0.00921630859375,0.0074462890625,-0.6030534351145038,0.183206106870229,-0.37404580152671757
1646443353219.5896,-0.1209716796875,-0.00848388671875,0.00762939453125,-0.5877862595419847,0.16793893129770993,-0.3511450381679389
1646443353220.1455,-0.1209716796875,-0.00848388671875,0.00762939453125,-0.5877862595419847,0.16793893129770993,-0.3511450381679389
1646443353220.7017,-0.12115478515625,-0.008056640625,0.008056640625,-0.5877862595419847,0.16030534351145037,-0.33587786259541985
1646443353221.3127,-0.12115478515625,-0.008056640625,0.008056640625,-0.5877862595419847,0.16030534351145037,-0.33587786259541985
1646443353221.8716,-0.12115478515625,-0.00860595703125,0.00897216796875,-0.5877862595419847,0.19083969465648856,-0.3435114503816794
1646443353222.4294,-0.121337890625,-0.0091552734375,0.00860595703125,-0.5954198473282443,0.19083969465648856,-0.35877862595419846
1646443353222.9866,-0.121337890625,-0.0091552734375,0.00860595703125,-0.5954198473282443,0.19083969465648856,-0.35877862595419846
1646443353223.5444,-0.12139892578125,-0.00909423828125,0.00872802734375,-0.6030534351145038,0.20610687022900764,-0.37404580152671757
1646443353224.101,-0.12139892578125,-0.00909423828125,0.00872802734375,-0.6030534351145038,0.20610687022900764,-0.37404580152671757
1646443353224.6584,-0.12152099609375,-0.0089111328125,0.00885009765625,-0.6030534351145038,0.19083969465648856,-0.366412213740458
1646443353225.2136,-0.12152099609375,-0.0089111328125,0.00885009765625,-0.6030534351145038,0.19083969465648856,-0.366412213740458
1646443353225.7722,-0.12225341796875,-0.00897216796875,0.00897216796875,-0.6030534351145038,0.17557251908396945,-0.3435114503816794
1646443353226.3284,-0.12225341796875,-0.00897216796875,0.00897216796875,-0.6030534351145038,0.17557251908396945,-0.3435114503816794
1646443353226.8865,-0.12139892578125,-0.00872802734375,0.00848388671875,-0.6030534351145038,0.183206106870229,-0.35877862595419846
1646443353227.4424,-0.1214599609375,-0.0084228515625,0.0089111328125,-0.6259541984732825,0.17557251908396945,-0.3511450381679389
1646443353227.999,-0.1214599609375,-0.0084228515625,0.0089111328125,-0.6259541984732825,0.17557251908396945,-0.3511450381679389
1646443353228.5542,-0.1220703125,-0.0081787109375,0.0089111328125,-0.6030534351145038,0.183206106870229,-0.3511450381679389
1646443353229.108,-0.1220703125,-0.0081787109375,0.0089111328125,-0.6030534351145038,0.183206106870229,-0.3511450381679389
1646443353229.6606,-0.121337890625,-0.0086669921875,0.00946044921875,-0.5877862595419847,0.17557251908396945,-0.35877862595419846
1646443353230.2168,-0.121337890625,-0.0086669921875,0.00946044921875,-0.5877862595419847,0.17557251908396945,-0.35877862595419846
1646443353230.7747,-0.12152099609375,-0.008544921875,0.00927734375,-0.5877862595419847,0.17557251908396945,-0.37404580152671757
1646443353231.331,-0.12152099609375,-0.008544921875,0.00927734375,-0.5877862595419847,0.17557251908396945,-0.37404580152671757
1646443353231.8884,-0.120849609375,-0.0089111328125,0.00927734375,-0.5954198473282443,0.183206106870229,-0.366412213740458
1646443353232.4429,-0.1217041015625,-0.00860595703125,0.00811767578125,-0.6106870229007634,0.20610687022900764,-0.35877862595419846
1646443353233.0005,-0.1217041015625,-0.00860595703125,0.00811767578125,-0.6106870229007634,0.20610687022900764,-0.35877862595419846
1646443353233.5564,-0.121337890625,-0.0087890625,0.00860595703125,-0.6106870229007634,0.1984732824427481,-0.33587786259541985
1646443353234.112,-0.121337890625,-0.0087890625,0.00860595703125,-0.6106870229007634,0.1984732824427481,-0.33587786259541985
1646443353234.667,-0.12066650390625,-0.00897216796875,0.00860595703125,-0.5877862595419847,0.20610687022900764,-0.35877862595419846
1646443353235.2244,-0.12066650390625,-0.00897216796875,0.00860595703125,-0.5877862595419847,0.20610687022900764,-0.35877862595419846
1646443353235.7817,-0.12060546875,-0.00946044921875,0.007568359375,-0.5725190839694656,0.183206106870229,-0.366412213740458
1646443353236.3367,-0.12060546875,-0.00946044921875,0.007568359375,-0.5725190839694656,0.183206106870229,-0.366412213740458
1646443353236.8904,-0.121337890625,-0.00927734375,0.00860595703125,-0.5954198473282443,0.16030534351145037,-0.35877862595419846
1646443353237.447,-0.12115478515625,-0.0087890625,0.00836181640625,-0.5954198473282443,0.16793893129770993,-0.3511450381679389
1646443353238.0012,-0.12115478515625,-0.0087890625,0.00836181640625,-0.5954198473282443,0.16793893129770993,-0.3511450381679389
1646443353238.556,-0.12127685546875,-0.00830078125,0.00799560546875,-0.5877862595419847,0.16793893129770993,-0.3435114503816794
1646443353239.1296,-0.12127685546875,-0.00830078125,0.00799560546875,-0.5877862595419847,0.16793893129770993,-0.3435114503816794
1646443353239.685,-0.12103271484375,-0.00872802734375,0.00836181640625,-0.5954198473282443,0.17557251908396945,-0.35877862595419846
1646443353240.2427,-0.12103271484375,-0.00872802734375,0.00836181640625,-0.5954198473282443,0.17557251908396945,-0.35877862595419846
1646443353240.7993,-0.1207275390625,-0.008544921875,0.00836181640625,-0.5877862595419847,0.16793893129770993,-0.35877862595419846
1646443353241.3647,-0.121337890625,-0.00848388671875,0.00811767578125,-0.5725190839694656,0.16030534351145037,-0.35877862595419846
1646443353241.924,-0.121337890625,-0.00848388671875,0.00811767578125,-0.5725190839694656,0.16030534351145037,-0.35877862595419846
1646443353242.482,-0.121826171875,-0.0089111328125,0.009521484375,-0.5954198473282443,0.183206106870229,-0.366412213740458
1646443353243.0347,-0.121826171875,-0.0089111328125,0.009521484375,-0.5954198473282443,0.183206106870229,-0.366412213740458
1646443353243.589,-0.12176513671875,-0.009033203125,0.0086669921875,-0.6106870229007634,0.17557251908396945,-0.37404580152671757
1646443353244.1445,-0.12176513671875,-0.009033203125,0.0086669921875,-0.6106870229007634,0.17557251908396945,-0.37404580152671757
1646443353244.7012,-0.1214599609375,-0.0089111328125,0.00897216796875,-0.5954198473282443,0.15267175572519084,-0.366412213740458
1646443353245.2566,-0.1214599609375,-0.0089111328125,0.00897216796875,-0.5954198473282443,0.15267175572519084,-0.366412213740458
1646443353245.8125,-0.120849609375,-0.00933837890625,0.00897216796875,-0.5954198473282443,0.1450381679389313,-0.37404580152671757
1646443353246.3674,-0.12054443359375,-0.00909423828125,0.00921630859375,-0.6030534351145038,0.16030534351145037,-0.3816793893129771
1646443353246.9229,-0.12054443359375,-0.00909423828125,0.00921630859375,-0.6030534351145038,0.16030534351145037,-0.3816793893129771
1646443353247.699,-0.12139892578125,-0.00927734375,0.008544921875,-0.5954198473282443,0.16793893129770993,-0.35877862595419846
1646443353248.259,-0.12139892578125,-0.00927734375,0.008544921875,-0.5954198473282443,0.16793893129770993,-0.35877862595419846
1646443353248.8179,-0.12078857421875,-0.00885009765625,0.009033203125,-0.6030534351145038,0.16030534351145037,-0.3435114503816794
1646443353249.3745,-0.121337890625,-0.00823974609375,0.00872802734375,-0.6030534351145038,0.15267175572519084,-0.3511450381679389
1646443353249.9314,-0.121337890625,-0.00823974609375,0.00872802734375,-0.6030534351145038,0.15267175572519084,-0.3511450381679389
1646443353250.4868,-0.12115478515625,-0.00885009765625,0.0084228515625,-0.6030534351145038,0.16030534351145037,-0.366412213740458
1646443353251.0432,-0.12115478515625,-0.00885009765625,0.0084228515625,-0.6030534351145038,0.16030534351145037,-0.366412213740458
1646443353251.5989,-0.12091064453125,-0.00830078125,0.0081787109375,-0.6030534351145038,0.13740458015267176,-0.366412213740458
1646443353252.1548,-0.12091064453125,-0.00830078125,0.0081787109375,-0.6030534351145038,0.13740458015267176,-0.366412213740458
1646443353252.7104,-0.1209716796875,-0.0081787109375,0.00848388671875,-0.5954198473282443,0.13740458015267176,-0.366412213740458
1646443353253.2659,-0.1209716796875,-0.0081787109375,0.00848388671875,-0.5954198473282443,0.13740458015267176,-0.366412213740458
1646443353253.8206,-0.12127685546875,-0.0079345703125,0.0091552734375,-0.6030534351145038,0.15267175572519084,-0.37404580152671757
1646443353254.377,-0.12109375,-0.00897216796875,0.0076904296875,-0.6183206106870229,0.16030534351145037,-0.37404580152671757
1646443353254.9314,-0.12109375,-0.00897216796875,0.0076904296875,-0.6183206106870229,0.16030534351145037,-0.37404580152671757
1646443353255.4856,-0.12164306640625,-0.00933837890625,0.00787353515625,-0.6106870229007634,0.15267175572519084,-0.3893129770992366
1646443353256.0422,-0.12164306640625,-0.00933837890625,0.00787353515625,-0.6106870229007634,0.15267175572519084,-0.3893129770992366
1646443353256.5989,-0.12164306640625,-0.008544921875,0.00872802734375,-0.5954198473282443,0.13740458015267176,-0.3893129770992366
1646443353257.1565,-0.12164306640625,-0.008544921875,0.00872802734375,-0.5954198473282443,0.13740458015267176,-0.3893129770992366
1646443353257.7126,-0.12164306640625,-0.0089111328125,0.0081787109375,-0.6030534351145038,0.1450381679389313,-0.37404580152671757
1646443353258.2688,-0.12164306640625,-0.0089111328125,0.0081787109375,-0.6030534351145038,0.1450381679389313,-0.37404580152671757
1646443353258.8247,-0.121826171875,-0.00830078125,0.0086669921875,-0.6030534351145038,0.16793893129770993,-0.3511450381679389
1646443353259.3796,-0.1212158203125,-0.00689697265625,0.0078125,-0.5954198473282443,0.16030534351145037,-0.35877862595419846
1646443353259.9348,-0.1212158203125,-0.00689697265625,0.0078125,-0.5954198473282443,0.16030534351145037,-0.35877862595419846
1646443353260.4905,-0.12139892578125,-0.00762939453125,0.008056640625,-0.5801526717557252,0.13740458015267176,-0.35877862595419846
1646443353261.0469,-0.12139892578125,-0.00762939453125,0.008056640625,-0.5801526717557252,0.13740458015267176,-0.35877862595419846
1646443353261.6072,-0.12127685546875,-0.009033203125,0.00860595703125,-0.5877862595419847,0.1450381679389313,-0.366412213740458
1646443353262.1672,-0.12127685546875,-0.009033203125,0.00860595703125,-0.5877862595419847,0.1450381679389313,-0.366412213740458
1646443353262.725,-0.1214599609375,-0.00921630859375,0.00909423828125,-0.5877862595419847,0.17557251908396945,-0.366412213740458
1646443353263.2847,-0.1214599609375,-0.00921630859375,0.00909423828125,-0.5877862595419847,0.17557251908396945,-0.366412213740458
1646443353263.8435,-0.12091064453125,-0.00848388671875,0.00885009765625,-0.5954198473282443,0.183206106870229,-0.366412213740458
1646443353264.4043,-0.12060546875,-0.0084228515625,0.00830078125,-0.5877862595419847,0.183206106870229,-0.3893129770992366
1646443353264.9607,-0.12060546875,-0.0084228515625,0.00830078125,-0.5877862595419847,0.183206106870229,-0.3893129770992366
1646443353265.5188,-0.12127685546875,-0.008544921875,0.00860595703125,-0.5801526717557252,0.16030534351145037,-0.3816793893129771
1646443353266.0781,-0.12127685546875,-0.008544921875,0.00860595703125,-0.5801526717557252,0.16030534351145037,-0.3816793893129771
1646443353266.638,-0.1212158203125,-0.00830078125,0.0079345703125,-0.5954198473282443,0.16030534351145037,-0.37404580152671757
1646443353267.1963,-0.1212158203125,-0.00830078125,0.0079345703125,-0.5954198473282443,0.16030534351145037,-0.37404580152671757
1646443353267.7559,-0.1214599609375,-0.0081787109375,0.0087890625,-0.6030534351145038,0.16030534351145037,-0.3816793893129771
1646443353268.3137,-0.1214599609375,-0.0081787109375,0.0087890625,-0.6030534351145038,0.16030534351145037,-0.3816793893129771
1646443353268.8718,-0.12139892578125,-0.0086669921875,0.0093994140625,-0.6030534351145038,0.15267175572519084,-0.37404580152671757
1646443353269.4316,-0.1202392578125,-0.00885009765625,0.0084228515625,-0.5877862595419847,0.15267175572519084,-0.3816793893129771
1646443353269.9912,-0.1202392578125,-0.00885009765625,0.0084228515625,-0.5877862595419847,0.15267175572519084,-0.3816793893129771
1646443353270.5508,-0.12060546875,-0.00872802734375,0.00927734375,-0.5877862595419847,0.15267175572519084,-0.366412213740458
1646443353271.1082,-0.12060546875,-0.00872802734375,0.00927734375,-0.5877862595419847,0.15267175572519084,-0.366412213740458
1646443353271.6672,-0.12164306640625,-0.00830078125,0.009765625,-0.5877862595419847,0.13740458015267176,-0.366412213740458
1646443353272.2244,-0.12164306640625,-0.00830078125,0.009765625,-0.5877862595419847,0.13740458015267176,-0.366412213740458
1646443353272.782,-0.12042236328125,-0.008544921875,0.00946044921875,-0.5648854961832062,0.13740458015267176,-0.3969465648854962
1646443353273.3408,-0.12042236328125,-0.008544921875,0.00946044921875,-0.5648854961832062,0.13740458015267176,-0.3969465648854962
1646443353273.9014,-0.12164306640625,-0.0086669921875,0.010009765625,-0.5877862595419847,0.1297709923664122,-0.3893129770992366
1646443353274.4597,-0.12152099609375,-0.00823974609375,0.00933837890625,-0.5877862595419847,0.1297709923664122,-0.3893129770992366
1646443353275.0193,-0.12152099609375,-0.00823974609375,0.00933837890625,-0.5877862595419847,0.1297709923664122,-0.3893129770992366
1646443353275.579,-0.12139892578125,-0.00830078125,0.00836181640625,-0.5877862595419847,0.1297709923664122,-0.3816793893129771
1646443353276.138,-0.12139892578125,-0.00830078125,0.00836181640625,-0.5877862595419847,0.1297709923664122,-0.3816793893129771
1646443353276.6953,-0.1221923828125,-0.00830078125,0.00823974609375,-0.5877862595419847,0.13740458015267176,-0.37404580152671757
1646443353277.2563,-0.1221923828125,-0.00830078125,0.00823974609375,-0.5877862595419847,0.13740458015267176,-0.37404580152671757
1646443353277.8157,-0.12078857421875,-0.00799560546875,0.0089111328125,-0.5954198473282443,0.15267175572519084,-0.3816793893129771
1646443353278.3755,-0.1212158203125,-0.0079345703125,0.00897216796875,-0.5954198473282443,0.16030534351145037,-0.3816793893129771
1646443353278.9343,-0.1212158203125,-0.0079345703125,0.00897216796875,-0.5954198473282443,0.16030534351145037,-0.3816793893129771
1646443353279.4927,-0.12188720703125,-0.00836181640625,0.0087890625,-0.5725190839694656,0.15267175572519084,-0.3816793893129771
1646443353280.052,-0.12188720703125,-0.00836181640625,0.0087890625,-0.5725190839694656,0.15267175572519084,-0.3816793893129771
1646443353280.61,-0.12115478515625,-0.00921630859375,0.0089111328125,-0.5725190839694656,0.11450381679389313,-0.3893129770992366
1646443353281.1694,-0.12115478515625,-0.00921630859375,0.0089111328125,-0.5725190839694656,0.11450381679389313,-0.3893129770992366
1646443353281.755,-0.12127685546875,-0.00848388671875,0.00885009765625,-0.5954198473282443,0.12213740458015267,-0.40458015267175573
1646443353282.3162,-0.12127685546875,-0.00848388671875,0.00885009765625,-0.5954198473282443,0.12213740458015267,-0.40458015267175573
1646443353282.8765,-0.122314453125,-0.00830078125,0.0091552734375,-0.5954198473282443,0.1297709923664122,-0.3893129770992366
1646443353283.572,-0.1219482421875,-0.0089111328125,0.0089111328125,-0.5954198473282443,0.12213740458015267,-0.3816793893129771
1646443353284.1355,-0.1219482421875,-0.0089111328125,0.0089111328125,-0.5954198473282443,0.12213740458015267,-0.3816793893129771
1646443353284.6958,-0.12152099609375,-0.00921630859375,0.00946044921875,-0.5801526717557252,0.11450381679389313,-0.3893129770992366
1646443353285.256,-0.12152099609375,-0.00921630859375,0.00946044921875,-0.5801526717557252,0.11450381679389313,-0.3893129770992366
1646443353285.8152,-0.12103271484375,-0.0084228515625,0.00933837890625,-0.5877862595419847,0.12213740458015267,-0.3893129770992366
1646443353286.3755,-0.12109375,-0.00885009765625,0.00811767578125,-0.6030534351145038,0.15267175572519084,-0.3816793893129771
1646443353286.9326,-0.12109375,-0.00885009765625,0.00811767578125,-0.6030534351145038,0.15267175572519084,-0.3816793893129771
1646443353287.491,-0.1212158203125,-0.00823974609375,0.0086669921875,-0.6183206106870229,0.15267175572519084,-0.3893129770992366
1646443353288.049,-0.1212158203125,-0.00823974609375,0.0086669921875,-0.6183206106870229,0.15267175572519084,-0.3893129770992366
1646443353288.6084,-0.121826171875,-0.00823974609375,0.0087890625,-0.5954198473282443,0.1450381679389313,-0.40458015267175573
1646443353289.1655,-0.121826171875,-0.00823974609375,0.0087890625,-0.5954198473282443,0.1450381679389313,-0.40458015267175573
1646443353289.7244,-0.12176513671875,-0.009033203125,0.00860595703125,-0.5801526717557252,0.13740458015267176,-0.3969465648854962
1646443353290.283,-0.12176513671875,-0.009033203125,0.00860595703125,-0.5801526717557252,0.13740458015267176,-0.3969465648854962
1646443353290.8425,-0.12152099609375,-0.0086669921875,0.00823974609375,-0.5954198473282443,0.13740458015267176,-0.37404580152671757
1646443353291.4033,-0.12109375,-0.0084228515625,0.0079345703125,-0.6030534351145038,0.1450381679389313,-0.3816793893129771
1646443353291.9602,-0.12109375,-0.0084228515625,0.0079345703125,-0.6030534351145038,0.1450381679389313,-0.3816793893129771
1646443353292.5166,-0.12139892578125,-0.00811767578125,0.008056640625,-0.6106870229007634,0.1450381679389313,-0.3893129770992366
1646443353293.0757,-0.12139892578125,-0.00811767578125,0.008056640625,-0.6106870229007634,0.1450381679389313,-0.3893129770992366
1646443353293.634,-0.12139892578125,-0.00860595703125,0.007568359375,-0.5954198473282443,0.16030534351145037,-0.3893129770992366
1646443353294.1921,-0.12139892578125,-0.00860595703125,0.007568359375,-0.5954198473282443,0.16030534351145037,-0.3893129770992366
1646443353294.7524,-0.12127685546875,-0.0079345703125,0.0084228515625,-0.5954198473282443,0.13740458015267176,-0.3893129770992366
1646443353295.3118,-0.12127685546875,-0.0079345703125,0.0084228515625,-0.5954198473282443,0.13740458015267176,-0.3893129770992366
1646443353295.8728,-0.1217041015625,-0.00823974609375,0.00897216796875,-0.5954198473282443,0.1297709923664122,-0.3816793893129771
1646443353296.4316,-0.12188720703125,-0.0086669921875,0.00885009765625,-0.5801526717557252,0.12213740458015267,-0.3816793893129771
1646443353296.9924,-0.12188720703125,-0.0086669921875,0.00885009765625,-0.5801526717557252,0.12213740458015267,-0.3816793893129771
1646443353297.5527,-0.121337890625,-0.00897216796875,0.00836181640625,-0.5877862595419847,0.12213740458015267,-0.3816793893129771
1646443353298.1118,-0.121337890625,-0.00897216796875,0.00836181640625,-0.5877862595419847,0.12213740458015267,-0.3816793893129771
1646443353298.6704,-0.1209716796875,-0.00860595703125,0.00750732421875,-0.5954198473282443,0.1297709923664122,-0.40458015267175573
1646443353299.231,-0.1209716796875,-0.00860595703125,0.00750732421875,-0.5954198473282443,0.1297709923664122,-0.40458015267175573
1646443353299.7896,-0.1212158203125,-0.0087890625,0.0078125,-0.6030534351145038,0.1297709923664122,-0.3816793893129771
1646443353300.347,-0.12139892578125,-0.0084228515625,0.00848388671875,-0.5801526717557252,0.1297709923664122,-0.3893129770992366
1646443353300.9053,-0.12139892578125,-0.0084228515625,0.00848388671875,-0.5801526717557252,0.1297709923664122,-0.3893129770992366
1646443353301.4653,-0.12109375,-0.00860595703125,0.00823974609375,-0.5801526717557252,0.1297709923664122,-0.40458015267175573
1646443353302.023,-0.12109375,-0.00860595703125,0.00823974609375,-0.5801526717557252,0.1297709923664122,-0.40458015267175573
1646443353302.5789,-0.12103271484375,-0.00933837890625,0.009033203125,-0.5801526717557252,0.12213740458015267,-0.40458015267175573
1646443353303.14,-0.12103271484375,-0.00933837890625,0.009033203125,-0.5801526717557252,0.12213740458015267,-0.40458015267175573
1646443353303.6987,-0.12164306640625,-0.00909423828125,0.00872802734375,-0.5877862595419847,0.10687022900763359,-0.3816793893129771
1646443353304.2595,-0.12164306640625,-0.00909423828125,0.00872802734375,-0.5877862595419847,0.10687022900763359,-0.3816793893129771
1646443353304.8188,-0.12066650390625,-0.008544921875,0.00762939453125,-0.6030534351145038,0.11450381679389313,-0.3816793893129771
1646443353305.3782,-0.120849609375,-0.00823974609375,0.008544921875,-0.6106870229007634,0.10687022900763359,-0.3816793893129771
1646443353305.936,-0.120849609375,-0.00823974609375,0.008544921875,-0.6106870229007634,0.10687022900763359,-0.3816793893129771
1646443353306.4954,-0.1217041015625,-0.009033203125,0.00897216796875,-0.5877862595419847,0.09923664122137404,-0.3816793893129771
1646443353307.0542,-0.1217041015625,-0.009033203125,0.00897216796875,-0.5877862595419847,0.09923664122137404,-0.3816793893129771
1646443353307.6135,-0.1212158203125,-0.00946044921875,0.00811767578125,-0.5648854961832062,0.0916030534351145,-0.3893129770992366
1646443353308.1736,-0.1212158203125,-0.00946044921875,0.00811767578125,-0.5648854961832062,0.0916030534351145,-0.3893129770992366
1646443353308.733,-0.12078857421875,-0.009765625,0.00830078125,-0.5801526717557252,0.09923664122137404,-0.3893129770992366
1646443353309.289,-0.12078857421875,-0.009765625,0.00830078125,-0.5801526717557252,0.09923664122137404,-0.3893129770992366
1646443353309.8447,-0.12103271484375,-0.009033203125,0.009521484375,-0.5801526717557252,0.0916030534351145,-0.3816793893129771
1646443353310.4023,-0.12158203125,-0.008056640625,0.00946044921875,-0.5725190839694656,0.10687022900763359,-0.3893129770992366
1646443353310.96,-0.12158203125,-0.008056640625,0.00946044921875,-0.5725190839694656,0.10687022900763359,-0.3893129770992366
1646443353311.519,-0.12127685546875,-0.008056640625,0.00921630859375,-0.5954198473282443,0.12213740458015267,-0.3969465648854962
1646443353312.078,-0.12127685546875,-0.008056640625,0.00921630859375,-0.5954198473282443,0.12213740458015267,-0.3969465648854962
1646443353312.638,-0.12152099609375,-0.00836181640625,0.01007080078125,-0.6183206106870229,0.1297709923664122,-0.3893129770992366
1646443353313.1968,-0.12152099609375,-0.00836181640625,0.01007080078125,-0.6183206106870229,0.1297709923664122,-0.3893129770992366
1646443353313.757,-0.121337890625,-0.0087890625,0.0089111328125,-0.5954198473282443,0.1297709923664122,-0.3893129770992366
1646443353314.3132,-0.121337890625,-0.0087890625,0.0089111328125,-0.5954198473282443,0.1297709923664122,-0.3893129770992366
1646443353314.8713,-0.120849609375,-0.00933837890625,0.00830078125,-0.6030534351145038,0.12213740458015267,-0.3893129770992366
1646443353315.4282,-0.121337890625,-0.0096435546875,0.0078125,-0.5954198473282443,0.10687022900763359,-0.3893129770992366
1646443353315.9873,-0.121337890625,-0.0096435546875,0.0078125,-0.5954198473282443,0.10687022900763359,-0.3893129770992366
1646443353316.5444,-0.12127685546875,-0.00946044921875,0.00860595703125,-0.5877862595419847,0.09923664122137404,-0.37404580152671757
1646443353317.1057,-0.12127685546875,-0.00946044921875,0.00860595703125,-0.5877862595419847,0.09923664122137404,-0.37404580152671757
1646443353317.6653,-0.12139892578125,-0.00872802734375,0.0091552734375,-0.5801526717557252,0.09923664122137404,-0.37404580152671757
1646443353318.2256,-0.12139892578125,-0.00872802734375,0.0091552734375,-0.5801526717557252,0.09923664122137404,-0.37404580152671757
1646443353318.785,-0.120849609375,-0.00860595703125,0.0091552734375,-0.5801526717557252,0.09923664122137404,-0.3816793893129771
1646443353319.453,-0.1214599609375,-0.00921630859375,0.008544921875,-0.5801526717557252,0.09923664122137404,-0.366412213740458
1646443353320.0156,-0.1214599609375,-0.00921630859375,0.008544921875,-0.5801526717557252,0.09923664122137404,-0.366412213740458
1646443353320.5747,-0.12054443359375,-0.0089111328125,0.00762939453125,-0.5572519083969466,0.12213740458015267,-0.366412213740458
1646443353321.1355,-0.12054443359375,-0.0089111328125,0.00762939453125,-0.5572519083969466,0.12213740458015267,-0.366412213740458
1646443353321.7239,-0.12060546875,-0.008544921875,0.00848388671875,-0.549618320610687,0.11450381679389313,-0.3816793893129771
1646443353322.2832,-0.12060546875,-0.008544921875,0.00848388671875,-0.549618320610687,0.11450381679389313,-0.3816793893129771
1646443353322.8416,-0.12109375,-0.00909423828125,0.0084228515625,-0.5648854961832062,0.11450381679389313,-0.37404580152671757
1646443353323.4011,-0.1207275390625,-0.0091552734375,0.008544921875,-0.5725190839694656,0.12213740458015267,-0.35877862595419846
1646443353323.96,-0.1207275390625,-0.0091552734375,0.008544921875,-0.5725190839694656,0.12213740458015267,-0.35877862595419846
1646443353324.5193,-0.12054443359375,-0.00872802734375,0.0086669921875,-0.5648854961832062,0.12213740458015267,-0.35877862595419846
1646443353325.0793,-0.12054443359375,-0.00872802734375,0.0086669921875,-0.5648854961832062,0.12213740458015267,-0.35877862595419846
1646443353325.6394,-0.120361328125,-0.0078125,0.00732421875,-0.5572519083969466,0.11450381679389313,-0.3816793893129771
1646443353326.1973,-0.120361328125,-0.0078125,0.00732421875,-0.5572519083969466,0.11450381679389313,-0.3816793893129771
1646443353326.7534,-0.12042236328125,-0.00860595703125,0.00830078125,-0.5648854961832062,0.12213740458015267,-0.3893129770992366
1646443353327.3127,-0.12042236328125,-0.00860595703125,0.00830078125,-0.5648854961832062,0.12213740458015267,-0.3893129770992366
1646443353327.8718,-0.12115478515625,-0.0087890625,0.009033203125,-0.5801526717557252,0.1297709923664122,-0.3816793893129771
1646443353328.4312,-0.12103271484375,-0.0089111328125,0.00897216796875,-0.5801526717557252,0.11450381679389313,-0.366412213740458
1646443353328.9905,-0.12103271484375,-0.0089111328125,0.00897216796875,-0.5801526717557252,0.11450381679389313,-0.366412213740458
1646443353329.5505,-0.120361328125,-0.0078125,0.0091552734375,-0.5725190839694656,0.09923664122137404,-0.3511450381679389
1646443353330.1072,-0.120361328125,-0.0078125,0.0091552734375,-0.5725190839694656,0.09923664122137404,-0.3511450381679389
1646443353330.6646,-0.12152099609375,-0.00811767578125,0.0087890625,-0.5725190839694656,0.07633587786259542,-0.366412213740458
1646443353331.222,-0.12152099609375,-0.00811767578125,0.0087890625,-0.5725190839694656,0.07633587786259542,-0.366412213740458
1646443353331.8098,-0.12152099609375,-0.00872802734375,0.0096435546875,-0.5648854961832062,0.05343511450381679,-0.37404580152671757
1646443353332.3696,-0.12127685546875,-0.0084228515625,0.00933837890625,-0.5954198473282443,0.061068702290076333,-0.35877862595419846
1646443353332.9304,-0.12127685546875,-0.0084228515625,0.00933837890625,-0.5954198473282443,0.061068702290076333,-0.35877862595419846
1646443353333.4905,-0.12066650390625,-0.0086669921875,0.008544921875,-0.6106870229007634,0.08396946564885496,-0.366412213740458
1646443353334.0479,-0.12066650390625,-0.0086669921875,0.008544921875,-0.6106870229007634,0.08396946564885496,-0.366412213740458
1646443353334.6064,-0.120849609375,-0.00872802734375,0.008056640625,-0.6183206106870229,0.0916030534351145,-0.37404580152671757
1646443353335.1643,-0.120849609375,-0.00872802734375,0.008056640625,-0.6183206106870229,0.0916030534351145,-0.37404580152671757
1646443353335.7236,-0.12078857421875,-0.0086669921875,0.00762939453125,-0.6412213740458015,0.07633587786259542,-0.3511450381679389
1646443353336.282,-0.12078857421875,-0.0086669921875,0.00762939453125,-0.6412213740458015,0.07633587786259542,-0.3511450381679389
1646443353336.8416,-0.12030029296875,-0.00830078125,0.00811767578125,-0.6717557251908397,0.03816793893129771,-0.35877862595419846
1646443353337.3997,-0.1209716796875,-0.009521484375,0.00885009765625,-0.6717557251908397,0.030534351145038167,-0.366412213740458
1646443353337.96,-0.1209716796875,-0.009521484375,0.00885009765625,-0.6717557251908397,0.030534351145038167,-0.366412213740458
1646443353338.5176,-0.12115478515625,-0.00848388671875,0.00897216796875,-0.6870229007633588,0.04580152671755725,-0.366412213740458
1646443353339.0784,-0.12115478515625,-0.00848388671875,0.00897216796875,-0.6870229007633588,0.04580152671755725,-0.366412213740458
1646443353339.637,-0.1214599609375,-0.009033203125,0.00836181640625,-0.6564885496183206,0.05343511450381679,-0.366412213740458
1646443353340.1953,-0.1214599609375,-0.009033203125,0.00836181640625,-0.6564885496183206,0.05343511450381679,-0.366412213740458
1646443353340.753,-0.12127685546875,-0.00848388671875,0.0091552734375,-0.6183206106870229,0.07633587786259542,-0.37404580152671757
1646443353341.314,-0.12127685546875,-0.00848388671875,0.0091552734375,-0.6183206106870229,0.07633587786259542,-0.37404580152671757
1646443353341.8726,-0.121826171875,-0.00885009765625,0.00848388671875,-0.5877862595419847,0.09923664122137404,-0.37404580152671757
1646443353342.4321,-0.12152099609375,-0.0086669921875,0.00909423828125,-0.5801526717557252,0.12213740458015267,-0.366412213740458
1646443353342.9922,-0.12152099609375,-0.0086669921875,0.00909423828125,-0.5801526717557252,0.12213740458015267,-0.366412213740458
1646443353343.5505,-0.1209716796875,-0.00848388671875,0.00958251953125,-0.6106870229007634,0.12213740458015267,-0.3511450381679389
1646443353344.111,-0.1209716796875,-0.00848388671875,0.00958251953125,-0.6106870229007634,0.12213740458015267,-0.3511450381679389
1646443353344.6687,-0.1212158203125,-0.00897216796875,0.009521484375,-0.6259541984732825,0.1297709923664122,-0.3435114503816794
1646443353345.2275,-0.1212158203125,-0.00897216796875,0.009521484375,-0.6259541984732825,0.1297709923664122,-0.3435114503816794
1646443353345.7856,-0.121337890625,-0.00848388671875,0.0086669921875,-0.6183206106870229,0.1450381679389313,-0.35877862595419846
1646443353346.3457,-0.1221923828125,-0.00830078125,0.00799560546875,-0.5954198473282443,0.13740458015267176,-0.35877862595419846
1646443353346.905,-0.1221923828125,-0.00830078125,0.00799560546875,-0.5954198473282443,0.13740458015267176,-0.35877862595419846
1646443353347.4648,-0.12237548828125,-0.00872802734375,0.0093994140625,-0.5954198473282443,0.1297709923664122,-0.35877862595419846
1646443353348.0244,-0.12237548828125,-0.00872802734375,0.0093994140625,-0.5954198473282443,0.1297709923664122,-0.35877862595419846
1646443353348.585,-0.12152099609375,-0.0093994140625,0.00921630859375,-0.6106870229007634,0.1297709923664122,-0.3435114503816794
1646443353349.1433,-0.12152099609375,-0.0093994140625,0.00921630859375,-0.6106870229007634,0.1297709923664122,-0.3435114503816794
1646443353349.702,-0.12188720703125,-0.009033203125,0.00921630859375,-0.6183206106870229,0.1297709923664122,-0.35877862595419846
1646443353350.2603,-0.12188720703125,-0.009033203125,0.00921630859375,-0.6183206106870229,0.1297709923664122,-0.35877862595419846
1646443353350.819,-0.12115478515625,-0.00933837890625,0.01031494140625,-0.6030534351145038,0.13740458015267176,-0.35877862595419846
1646443353351.3806,-0.12091064453125,-0.0089111328125,0.00909423828125,-0.5877862595419847,0.15267175572519084,-0.3511450381679389
1646443353351.9402,-0.12091064453125,-0.0089111328125,0.00909423828125,-0.5877862595419847,0.15267175572519084,-0.3511450381679389
1646443353352.5007,-0.121337890625,-0.00830078125,0.00897216796875,-0.5954198473282443,0.16030534351145037,-0.3511450381679389
1646443353353.059,-0.121337890625,-0.00830078125,0.00897216796875,-0.5954198473282443,0.16030534351145037,-0.3511450381679389
1646443353353.6174,-0.1212158203125,-0.00909423828125,0.0098876953125,-0.5954198473282443,0.183206106870229,-0.3511450381679389
1646443353354.1763,-0.1212158203125,-0.00909423828125,0.0098876953125,-0.5954198473282443,0.183206106870229,-0.3511450381679389
1646443353354.7354,-0.12213134765625,-0.00860595703125,0.00970458984375,-0.6259541984732825,0.183206106870229,-0.3511450381679389
1646443353355.4065,-0.12176513671875,-0.00860595703125,0.00958251953125,-0.6183206106870229,0.183206106870229,-0.35877862595419846
1646443353355.97,-0.12176513671875,-0.00860595703125,0.00958251953125,-0.6183206106870229,0.183206106870229,-0.35877862595419846
1646443353356.53,-0.12139892578125,-0.0086669921875,0.009033203125,-0.6183206106870229,0.183206106870229,-0.3511450381679389
1646443353357.088,-0.12139892578125,-0.0086669921875,0.009033203125,-0.6183206106870229,0.183206106870229,-0.3511450381679389
1646443353357.6475,-0.12158203125,-0.00787353515625,0.008056640625,-0.6183206106870229,0.19083969465648856,-0.366412213740458
1646443353358.2048,-0.12158203125,-0.00787353515625,0.008056640625,-0.6183206106870229,0.19083969465648856,-0.366412213740458
1646443353358.7637,-0.12139892578125,-0.0076904296875,0.0081787109375,-0.6259541984732825,0.20610687022900764,-0.3511450381679389
1646443353359.3225,-0.12139892578125,-0.0076904296875,0.0081787109375,-0.6259541984732825,0.20610687022900764,-0.3511450381679389
1646443353359.8835,-0.12139892578125,-0.0091552734375,0.00927734375,-0.5954198473282443,0.1984732824427481,-0.3435114503816794
1646443353360.4424,-0.120849609375,-0.0086669921875,0.009521484375,-0.5801526717557252,0.183206106870229,-0.35877862595419846
1646443353361.001,-0.120849609375,-0.0086669921875,0.009521484375,-0.5801526717557252,0.183206106870229,-0.35877862595419846
1646443353361.5586,-0.1209716796875,-0.00885009765625,0.00830078125,-0.5877862595419847,0.183206106870229,-0.37404580152671757
1646443353362.1182,-0.1209716796875,-0.00885009765625,0.00830078125,-0.5877862595419847,0.183206106870229,-0.37404580152671757
1646443353362.676,-0.12158203125,-0.0093994140625,0.00848388671875,-0.6183206106870229,0.20610687022900764,-0.366412213740458
1646443353363.2349,-0.12158203125,-0.0093994140625,0.00848388671875,-0.6183206106870229,0.20610687022900764,-0.366412213740458
1646443353363.7927,-0.12139892578125,-0.00830078125,0.009521484375,-0.6183206106870229,0.22137404580152673,-0.3435114503816794
1646443353364.351,-0.121337890625,-0.00811767578125,0.00909423828125,-0.6030534351145038,0.21374045801526717,-0.3435114503816794
1646443353364.9102,-0.121337890625,-0.00811767578125,0.00909423828125,-0.6030534351145038,0.21374045801526717,-0.3435114503816794
1646443353365.469,-0.1217041015625,-0.0081787109375,0.008056640625,-0.6106870229007634,0.22137404580152673,-0.35877862595419846
1646443353366.0273,-0.1217041015625,-0.0081787109375,0.008056640625,-0.6106870229007634,0.22137404580152673,-0.35877862595419846
1646443353366.586,-0.12115478515625,-0.0084228515625,0.00762939453125,-0.6106870229007634,0.21374045801526717,-0.366412213740458
1646443353367.1458,-0.12115478515625,-0.0084228515625,0.00762939453125,-0.6106870229007634,0.21374045801526717,-0.366412213740458
1646443353367.7048,-0.1214599609375,-0.00897216796875,0.00909423828125,-0.6030534351145038,0.1984732824427481,-0.35877862595419846
1646443353368.2656,-0.1214599609375,-0.00897216796875,0.00909423828125,-0.6030534351145038,0.1984732824427481,-0.35877862595419846
1646443353368.826,-0.12127685546875,-0.008544921875,0.0093994140625,-0.6106870229007634,0.21374045801526717,-0.35877862595419846
1646443353369.3867,-0.12060546875,-0.00860595703125,0.00885009765625,-0.6183206106870229,0.22137404580152673,-0.3511450381679389
1646443353369.9453,-0.12060546875,-0.00860595703125,0.00885009765625,-0.6183206106870229,0.22137404580152673,-0.3511450381679389
1646443353370.505,-0.1214599609375,-0.00897216796875,0.00836181640625,-0.6259541984732825,0.1984732824427481,-0.366412213740458
1646443353371.0632,-0.1214599609375,-0.00897216796875,0.00836181640625,-0.6259541984732825,0.1984732824427481,-0.366412213740458
1646443353371.6235,-0.1219482421875,-0.00885009765625,0.00933837890625,-0.6183206106870229,0.17557251908396945,-0.366412213740458
1646443353372.1829,-0.1219482421875,-0.00885009765625,0.00933837890625,-0.6183206106870229,0.17557251908396945,-0.366412213740458
1646443353372.7415,-0.121337890625,-0.00872802734375,0.0087890625,-0.6259541984732825,0.183206106870229,-0.3511450381679389
1646443353373.298,-0.121337890625,-0.00872802734375,0.0087890625,-0.6259541984732825,0.183206106870229,-0.3511450381679389
1646443353373.8538,-0.12139892578125,-0.0078125,0.00848388671875,-0.6183206106870229,0.17557251908396945,-0.3435114503816794
1646443353374.4119,-0.12042236328125,-0.008056640625,0.0078125,-0.6183206106870229,0.183206106870229,-0.35877862595419846
1646443353374.969,-0.12042236328125,-0.008056640625,0.0078125,-0.6183206106870229,0.183206106870229,-0.35877862595419846
1646443353375.5266,-0.1214599609375,-0.00872802734375,0.0086669921875,-0.6183206106870229,0.19083969465648856,-0.366412213740458
1646443353376.0854,-0.1214599609375,-0.00872802734375,0.0086669921875,-0.6183206106870229,0.19083969465648856,-0.366412213740458
1646443353376.6455,-0.12188720703125,-0.0084228515625,0.009033203125,-0.6183206106870229,0.183206106870229,-0.3511450381679389
1646443353377.2036,-0.12188720703125,-0.0084228515625,0.009033203125,-0.6183206106870229,0.183206106870229,-0.3511450381679389
1646443353377.7622,-0.12127685546875,-0.00836181640625,0.00958251953125,-0.6183206106870229,0.17557251908396945,-0.366412213740458
1646443353378.3218,-0.12127685546875,-0.00836181640625,0.00958251953125,-0.6183206106870229,0.17557251908396945,-0.366412213740458
1646443353378.8823,-0.121826171875,-0.0081787109375,0.00860595703125,-0.6259541984732825,0.16793893129770993,-0.3816793893129771
1646443353379.442,-0.1217041015625,-0.009033203125,0.00823974609375,-0.6030534351145038,0.16793893129770993,-0.3816793893129771
1646443353380.0015,-0.1217041015625,-0.009033203125,0.00823974609375,-0.6030534351145038,0.16793893129770993,-0.3816793893129771
1646443353380.5608,-0.12103271484375,-0.009521484375,0.0086669921875,-0.6030534351145038,0.17557251908396945,-0.366412213740458
1646443353381.1194,-0.12103271484375,-0.009521484375,0.0086669921875,-0.6030534351145038,0.17557251908396945,-0.366412213740458
1646443353381.7031,-0.12091064453125,-0.00885009765625,0.0087890625,-0.6030534351145038,0.16030534351145037,-0.37404580152671757
1646443353382.263,-0.12091064453125,-0.00885009765625,0.0087890625,-0.6030534351145038,0.16030534351145037,-0.37404580152671757
1646443353382.8235,-0.1214599609375,-0.00823974609375,0.0084228515625,-0.6183206106870229,0.16793893129770993,-0.3816793893129771
1646443353383.3828,-0.12164306640625,-0.00836181640625,0.00732421875,-0.6183206106870229,0.15267175572519084,-0.37404580152671757
1646443353383.943,-0.12164306640625,-0.00836181640625,0.00732421875,-0.6183206106870229,0.15267175572519084,-0.37404580152671757
1646443353384.502,-0.12091064453125,-0.008544921875,0.0084228515625,-0.6183206106870229,0.16030534351145037,-0.37404580152671757
1646443353385.0627,-0.12091064453125,-0.008544921875,0.0084228515625,-0.6183206106870229,0.16030534351145037,-0.37404580152671757
1646443353385.6213,-0.1214599609375,-0.0084228515625,0.00848388671875,-0.6106870229007634,0.15267175572519084,-0.366412213740458
1646443353386.181,-0.1214599609375,-0.0084228515625,0.00848388671875,-0.6106870229007634,0.15267175572519084,-0.366412213740458
1646443353386.7393,-0.1219482421875,-0.00811767578125,0.0079345703125,-0.6030534351145038,0.1450381679389313,-0.35877862595419846
1646443353387.2998,-0.1219482421875,-0.00811767578125,0.0079345703125,-0.6030534351145038,0.1450381679389313,-0.35877862595419846
1646443353387.8599,-0.12164306640625,-0.00799560546875,0.00909423828125,-0.6030534351145038,0.12213740458015267,-0.37404580152671757
1646443353388.4211,-0.12139892578125,-0.00823974609375,0.0091552734375,-0.6030534351145038,0.1297709923664122,-0.366412213740458
1646443353388.979,-0.12139892578125,-0.00823974609375,0.0091552734375,-0.6030534351145038,0.1297709923664122,-0.366412213740458
1646443353389.5374,-0.12152099609375,-0.00823974609375,0.0084228515625,-0.6106870229007634,0.13740458015267176,-0.366412213740458
1646443353390.0967,-0.12152099609375,-0.00823974609375,0.0084228515625,-0.6106870229007634,0.13740458015267176,-0.366412213740458
1646443353390.6562,-0.12164306640625,-0.00836181640625,0.00848388671875,-0.6030534351145038,0.13740458015267176,-0.37404580152671757
1646443353391.3423,-0.12115478515625,-0.00872802734375,0.00830078125,-0.6106870229007634,0.13740458015267176,-0.3816793893129771
1646443353391.9048,-0.12115478515625,-0.00872802734375,0.00830078125,-0.6106870229007634,0.13740458015267176,-0.3816793893129771
1646443353392.4634,-0.1219482421875,-0.00885009765625,0.008056640625,-0.5954198473282443,0.12213740458015267,-0.366412213740458
1646443353393.0195,-0.1219482421875,-0.00885009765625,0.008056640625,-0.5954198473282443,0.12213740458015267,-0.366412213740458
1646443353393.5764,-0.12158203125,-0.00830078125,0.00897216796875,-0.5954198473282443,0.1297709923664122,-0.37404580152671757
1646443353394.1316,-0.12158203125,-0.00830078125,0.00897216796875,-0.5954198473282443,0.1297709923664122,-0.37404580152671757
1646443353394.6873,-0.12152099609375,-0.0081787109375,0.00872802734375,-0.5877862595419847,0.13740458015267176,-0.37404580152671757
1646443353395.2432,-0.12152099609375,-0.0081787109375,0.00872802734375,-0.5877862595419847,0.13740458015267176,-0.37404580152671757
1646443353395.7993,-0.12158203125,-0.00885009765625,0.0074462890625,-0.5877862595419847,0.1450381679389313,-0.366412213740458
1646443353396.3535,-0.120849609375,-0.00823974609375,0.00830078125,-0.5954198473282443,0.13740458015267176,-0.366412213740458
1646443353396.9084,-0.120849609375,-0.00823974609375,0.00830078125,-0.5954198473282443,0.13740458015267176,-0.366412213740458
1646443353397.4634,-0.1207275390625,-0.00885009765625,0.00872802734375,-0.6183206106870229,0.1297709923664122,-0.35877862595419846
1646443353398.0193,-0.1207275390625,-0.00885009765625,0.00872802734375,-0.6183206106870229,0.1297709923664122,-0.35877862595419846
1646443353398.5764,-0.1209716796875,-0.0089111328125,0.00909423828125,-0.6030534351145038,0.12213740458015267,-0.35877862595419846
1646443353399.1323,-0.1209716796875,-0.0089111328125,0.00909423828125,-0.6030534351145038,0.12213740458015267,-0.35877862595419846
1646443353399.6895,-0.12127685546875,-0.00860595703125,0.008544921875,-0.5954198473282443,0.1450381679389313,-0.366412213740458
1646443353400.2449,-0.12127685546875,-0.00860595703125,0.008544921875,-0.5954198473282443,0.1450381679389313,-0.366412213740458
1646443353400.8022,-0.1219482421875,-0.008056640625,0.0089111328125,-0.6106870229007634,0.13740458015267176,-0.366412213740458
1646443353401.3604,-0.12164306640625,-0.00811767578125,0.00933837890625,-0.6030534351145038,0.11450381679389313,-0.366412213740458
1646443353401.922,-0.12164306640625,-0.00811767578125,0.00933837890625,-0.6030534351145038,0.11450381679389313,-0.366412213740458
1646443353402.481,-0.12158203125,-0.00823974609375,0.008056640625,-0.5954198473282443,0.12213740458015267,-0.35877862595419846
1646443353403.0403,-0.12158203125,-0.00823974609375,0.008056640625,-0.5954198473282443,0.12213740458015267,-0.35877862595419846
1646443353403.5989,-0.12188720703125,-0.00872802734375,0.008056640625,-0.5877862595419847,0.11450381679389313,-0.366412213740458
1646443353404.1582,-0.12188720703125,-0.00872802734375,0.008056640625,-0.5877862595419847,0.11450381679389313,-0.366412213740458
1646443353404.7168,-0.12103271484375,-0.00946044921875,0.0087890625,-0.5954198473282443,0.12213740458015267,-0.37404580152671757
1646443353405.2769,-0.12103271484375,-0.00946044921875,0.0087890625,-0.5954198473282443,0.12213740458015267,-0.37404580152671757
1646443353405.8357,-0.12158203125,-0.00897216796875,0.00927734375,-0.6106870229007634,0.13740458015267176,-0.366412213740458
1646443353406.393,-0.120849609375,-0.00775146484375,0.0079345703125,-0.6030534351145038,0.1297709923664122,-0.3435114503816794
1646443353406.9524,-0.120849609375,-0.00775146484375,0.0079345703125,-0.6030534351145038,0.1297709923664122,-0.3435114503816794
1646443353407.5107,-0.12060546875,-0.00823974609375,0.0084228515625,-0.6030534351145038,0.1297709923664122,-0.35877862595419846
1646443353408.07,-0.12060546875,-0.00823974609375,0.0084228515625,-0.6030534351145038,0.1297709923664122,-0.35877862595419846
1646443353408.6274,-0.12176513671875,-0.00830078125,0.0081787109375,-0.6030534351145038,0.1297709923664122,-0.366412213740458
1646443353409.1863,-0.12176513671875,-0.00830078125,0.0081787109375,-0.6030534351145038,0.1297709923664122,-0.366412213740458
1646443353409.7446,-0.12152099609375,-0.0086669921875,0.00909423828125,-0.6259541984732825,0.1450381679389313,-0.3816793893129771
1646443353410.3054,-0.12152099609375,-0.0086669921875,0.00909423828125,-0.6259541984732825,0.1450381679389313,-0.3816793893129771
1646443353410.865,-0.1212158203125,-0.0084228515625,0.00872802734375,-0.6259541984732825,0.13740458015267176,-0.3893129770992366
1646443353411.4258,-0.1214599609375,-0.0087890625,0.0078125,-0.6106870229007634,0.1450381679389313,-0.3816793893129771
1646443353411.9817,-0.1214599609375,-0.0087890625,0.0078125,-0.6106870229007634,0.1450381679389313,-0.3816793893129771
1646443353412.5386,-0.11993408203125,-0.00860595703125,0.00897216796875,-0.5877862595419847,0.1450381679389313,-0.37404580152671757
1646443353413.0989,-0.11993408203125,-0.00860595703125,0.00897216796875,-0.5877862595419847,0.1450381679389313,-0.37404580152671757
1646443353413.6584,-0.12078857421875,-0.0087890625,0.0086669921875,-0.6030534351145038,0.15267175572519084,-0.35877862595419846
1646443353414.2173,-0.12078857421875,-0.0087890625,0.0086669921875,-0.6030534351145038,0.15267175572519084,-0.35877862595419846
1646443353414.7761,-0.1214599609375,-0.0096435546875,0.00860595703125,-0.6030534351145038,0.12213740458015267,-0.366412213740458
1646443353415.3357,-0.12060546875,-0.00970458984375,0.0087890625,-0.5877862595419847,0.10687022900763359,-0.3816793893129771
1646443353415.8933,-0.12060546875,-0.00970458984375,0.0087890625,-0.5877862595419847,0.10687022900763359,-0.3816793893129771
1646443353416.4521,-0.121337890625,-0.0081787109375,0.009521484375,-0.5954198473282443,0.13740458015267176,-0.37404580152671757
1646443353417.0112,-0.121337890625,-0.0081787109375,0.009521484375,-0.5954198473282443,0.13740458015267176,-0.37404580152671757
1646443353417.5715,-0.121337890625,-0.00830078125,0.010498046875,-0.6183206106870229,0.15267175572519084,-0.37404580152671757
1646443353418.13,-0.121337890625,-0.00830078125,0.010498046875,-0.6183206106870229,0.15267175572519084,-0.37404580152671757
1646443353418.6885,-0.121826171875,-0.00848388671875,0.009765625,-0.6259541984732825,0.15267175572519084,-0.35877862595419846
1646443353419.2466,-0.121826171875,-0.00848388671875,0.009765625,-0.6259541984732825,0.15267175572519084,-0.35877862595419846
1646443353419.807,-0.12109375,-0.00830078125,0.009033203125,-0.6030534351145038,0.12213740458015267,-0.35877862595419846
1646443353420.3628,-0.12078857421875,-0.00885009765625,0.00933837890625,-0.5877862595419847,0.11450381679389313,-0.3511450381679389
1646443353420.9248,-0.12078857421875,-0.00885009765625,0.00933837890625,-0.5877862595419847,0.11450381679389313,-0.3511450381679389
1646443353421.4858,-0.1219482421875,-0.00872802734375,0.01025390625,-0.5725190839694656,0.10687022900763359,-0.3511450381679389
1646443353422.0437,-0.1219482421875,-0.00872802734375,0.01025390625,-0.5725190839694656,0.10687022900763359,-0.3511450381679389
1646443353422.6025,-0.12158203125,-0.00823974609375,0.00872802734375,-0.5877862595419847,0.1450381679389313,-0.3511450381679389
1646443353423.161,-0.12158203125,-0.00823974609375,0.00872802734375,-0.5877862595419847,0.1450381679389313,-0.3511450381679389
1646443353423.72,-0.121337890625,-0.008056640625,0.00836181640625,-0.6106870229007634,0.15267175572519084,-0.35877862595419846
1646443353424.2783,-0.121337890625,-0.008056640625,0.00836181640625,-0.6106870229007634,0.15267175572519084,-0.35877862595419846
1646443353424.838,-0.12164306640625,-0.00909423828125,0.009033203125,-0.6106870229007634,0.13740458015267176,-0.37404580152671757
1646443353425.3972,-0.1209716796875,-0.00885009765625,0.0084228515625,-0.6106870229007634,0.13740458015267176,-0.366412213740458
1646443353425.958,-0.1209716796875,-0.00885009765625,0.0084228515625,-0.6106870229007634,0.13740458015267176,-0.366412213740458
1646443353426.516,-0.12078857421875,-0.0089111328125,0.0086669921875,-0.6030534351145038,0.13740458015267176,-0.35877862595419846
1646443353427.1882,-0.12078857421875,-0.0089111328125,0.0086669921875,-0.6030534351145038,0.13740458015267176,-0.35877862595419846
1646443353427.7517,-0.12127685546875,-0.00872802734375,0.00860595703125,-0.5954198473282443,0.15267175572519084,-0.35877862595419846
1646443353428.3127,-0.12127685546875,-0.00872802734375,0.00860595703125,-0.5954198473282443,0.15267175572519084,-0.35877862595419846
1646443353428.874,-0.12158203125,-0.00836181640625,0.0079345703125,-0.5954198473282443,0.16030534351145037,-0.3511450381679389
1646443353429.431,-0.1214599609375,-0.0084228515625,0.0089111328125,-0.6030534351145038,0.16030534351145037,-0.33587786259541985
1646443353429.9893,-0.1214599609375,-0.0084228515625,0.0089111328125,-0.6030534351145038,0.16030534351145037,-0.33587786259541985
1646443353430.5488,-0.12091064453125,-0.00885009765625,0.0087890625,-0.6030534351145038,0.16793893129770993,-0.35877862595419846
1646443353431.1086,-0.12091064453125,-0.00885009765625,0.0087890625,-0.6030534351145038,0.16793893129770993,-0.35877862595419846
1646443353431.6677,-0.12103271484375,-0.00909423828125,0.009521484375,-0.5954198473282443,0.16793893129770993,-0.366412213740458
1646443353432.2292,-0.12103271484375,-0.00909423828125,0.009521484375,-0.5954198473282443,0.16793893129770993,-0.366412213740458
1646443353432.788,-0.12200927734375,-0.00848388671875,0.0096435546875,-0.6030534351145038,0.16030534351145037,-0.3816793893129771
1646443353433.3484,-0.12152099609375,-0.00799560546875,0.00921630859375,-0.6030534351145038,0.16793893129770993,-0.37404580152671757
1646443353433.9082,-0.12152099609375,-0.00799560546875,0.00921630859375,-0.6030534351145038,0.16793893129770993,-0.37404580152671757
1646443353434.4697,-0.12042236328125,-0.0081787109375,0.00885009765625,-0.6106870229007634,0.16030534351145037,-0.3435114503816794
1646443353435.03,-0.12042236328125,-0.0081787109375,0.00885009765625,-0.6106870229007634,0.16030534351145037,-0.3435114503816794
1646443353435.5925,-0.12127685546875,-0.0081787109375,0.00811767578125,-0.6030534351145038,0.17557251908396945,-0.33587786259541985
1646443353436.1528,-0.12127685546875,-0.0081787109375,0.00811767578125,-0.6030534351145038,0.17557251908396945,-0.33587786259541985
1646443353436.7126,-0.12103271484375,-0.008544921875,0.00921630859375,-0.5954198473282443,0.183206106870229,-0.33587786259541985
1646443353437.2712,-0.12103271484375,-0.008544921875,0.00921630859375,-0.5954198473282443,0.183206106870229,-0.33587786259541985
1646443353437.8298,-0.1220703125,-0.00860595703125,0.00970458984375,-0.5954198473282443,0.19083969465648856,-0.3511450381679389
1646443353438.3892,-0.12249755859375,-0.00823974609375,0.0096435546875,-0.6183206106870229,0.1984732824427481,-0.35877862595419846
1646443353438.9492,-0.12249755859375,-0.00823974609375,0.0096435546875,-0.6183206106870229,0.1984732824427481,-0.35877862595419846
1646443353439.5103,-0.12139892578125,-0.0091552734375,0.00994873046875,-0.6259541984732825,0.1984732824427481,-0.37404580152671757
1646443353440.0706,-0.12139892578125,-0.0091552734375,0.00994873046875,-0.6259541984732825,0.1984732824427481,-0.37404580152671757
1646443353440.6318,-0.1217041015625,-0.00994873046875,0.009521484375,-0.6106870229007634,0.20610687022900764,-0.366412213740458
1646443353441.1914,-0.1217041015625,-0.00994873046875,0.009521484375,-0.6106870229007634,0.20610687022900764,-0.366412213740458
1646443353441.7847,-0.12164306640625,-0.00970458984375,0.0098876953125,-0.6183206106870229,0.22137404580152673,-0.366412213740458
1646443353442.3445,-0.1214599609375,-0.00921630859375,0.0093994140625,-0.6259541984732825,0.22137404580152673,-0.35877862595419846
1646443353442.9045,-0.1214599609375,-0.00921630859375,0.0093994140625,-0.6259541984732825,0.22137404580152673,-0.35877862595419846
1646443353443.4646,-0.1217041015625,-0.00897216796875,0.0089111328125,-0.6259541984732825,0.21374045801526717,-0.3511450381679389
1646443353444.0234,-0.1217041015625,-0.00897216796875,0.0089111328125,-0.6259541984732825,0.21374045801526717,-0.3511450381679389
1646443353444.5823,-0.12109375,-0.0084228515625,0.00921630859375,-0.6259541984732825,0.22900763358778625,-0.3435114503816794
1646443353445.14,-0.12109375,-0.0084228515625,0.00921630859375,-0.6259541984732825,0.22900763358778625,-0.3435114503816794
1646443353445.6973,-0.12139892578125,-0.00958251953125,0.00921630859375,-0.6183206106870229,0.1984732824427481,-0.33587786259541985
1646443353446.2576,-0.12139892578125,-0.00958251953125,0.00921630859375,-0.6183206106870229,0.1984732824427481,-0.33587786259541985
1646443353446.8198,-0.1212158203125,-0.00927734375,0.009521484375,-0.6030534351145038,0.20610687022900764,-0.3511450381679389
1646443353447.378,-0.1212158203125,-0.00860595703125,0.00885009765625,-0.6183206106870229,0.22900763358778625,-0.35877862595419846
1646443353447.9385,-0.1212158203125,-0.00860595703125,0.00885009765625,-0.6183206106870229,0.22900763358778625,-0.35877862595419846
1646443353448.499,-0.12255859375,-0.00860595703125,0.00860595703125,-0.6412213740458015,0.24427480916030533,-0.3511450381679389
1646443353449.0583,-0.12255859375,-0.00860595703125,0.00860595703125,-0.6412213740458015,0.24427480916030533,-0.3511450381679389
1646443353449.617,-0.12127685546875,-0.00897216796875,0.0086669921875,-0.6259541984732825,0.2366412213740458,-0.3435114503816794
1646443353450.1782,-0.12127685546875,-0.00897216796875,0.0086669921875,-0.6259541984732825,0.2366412213740458,-0.3435114503816794
1646443353450.7366,-0.12139892578125,-0.00823974609375,0.00811767578125,-0.6030534351145038,0.2366412213740458,-0.3511450381679389
1646443353451.2976,-0.12139892578125,-0.00823974609375,0.00811767578125,-0.6030534351145038,0.2366412213740458,-0.3511450381679389
1646443353451.8564,-0.12109375,-0.0086669921875,0.008056640625,-0.6030534351145038,0.2366412213740458,-0.3511450381679389
1646443353452.4126,-0.120361328125,-0.0089111328125,0.0079345703125,-0.6106870229007634,0.24427480916030533,-0.3511450381679389
1646443353452.9707,-0.120361328125,-0.0089111328125,0.0079345703125,-0.6106870229007634,0.24427480916030533,-0.3511450381679389
1646443353453.5288,-0.12164306640625,-0.008544921875,0.0084228515625,-0.6183206106870229,0.24427480916030533,-0.3511450381679389
1646443353454.0874,-0.12164306640625,-0.008544921875,0.0084228515625,-0.6183206106870229,0.24427480916030533,-0.3511450381679389
1646443353454.6458,-0.1214599609375,-0.00860595703125,0.00811767578125,-0.6106870229007634,0.24427480916030533,-0.3435114503816794
1646443353455.206,-0.1214599609375,-0.00860595703125,0.00811767578125,-0.6106870229007634,0.24427480916030533,-0.3435114503816794
1646443353455.7651,-0.12188720703125,-0.00830078125,0.0081787109375,-0.6183206106870229,0.25190839694656486,-0.3511450381679389
1646443353456.3242,-0.12188720703125,-0.00830078125,0.0081787109375,-0.6183206106870229,0.25190839694656486,-0.3511450381679389
1646443353456.8838,-0.1221923828125,-0.00872802734375,0.00799560546875,-0.6335877862595419,0.24427480916030533,-0.35877862595419846
1646443353457.4446,-0.12176513671875,-0.00909423828125,0.0081787109375,-0.6183206106870229,0.22900763358778625,-0.35877862595419846
1646443353458.0046,-0.12176513671875,-0.00909423828125,0.0081787109375,-0.6183206106870229,0.22900763358778625,-0.35877862595419846
1646443353458.5662,-0.12109375,-0.00897216796875,0.0079345703125,-0.6030534351145038,0.22900763358778625,-0.3435114503816794
1646443353459.1235,-0.12109375,-0.00897216796875,0.0079345703125,-0.6030534351145038,0.22900763358778625,-0.3435114503816794
1646443353459.6821,-0.12164306640625,-0.00830078125,0.008544921875,-0.6183206106870229,0.22900763358778625,-0.3511450381679389
1646443353460.2407,-0.12164306640625,-0.00830078125,0.008544921875,-0.6183206106870229,0.22900763358778625,-0.3511450381679389
1646443353460.798,-0.1219482421875,-0.008544921875,0.0086669921875,-0.6259541984732825,0.22900763358778625,-0.3511450381679389
1646443353461.357,-0.1219482421875,-0.00885009765625,0.00909423828125,-0.6259541984732825,0.2366412213740458,-0.3511450381679389
1646443353461.9148,-0.1219482421875,-0.00885009765625,0.00909423828125,-0.6259541984732825,0.2366412213740458,-0.3511450381679389
1646443353462.6147,-0.12188720703125,-0.00811767578125,0.00714111328125,-0.6259541984732825,0.2595419847328244,-0.35877862595419846
1646443353463.1807,-0.12188720703125,-0.00811767578125,0.00714111328125,-0.6259541984732825,0.2595419847328244,-0.35877862595419846
1646443353463.743,-0.1217041015625,-0.00909423828125,0.00836181640625,-0.6106870229007634,0.25190839694656486,-0.35877862595419846
1646443353464.3037,-0.1217041015625,-0.00909423828125,0.00836181640625,-0.6106870229007634,0.25190839694656486,-0.35877862595419846
1646443353464.8647,-0.12139892578125,-0.00921630859375,0.00787353515625,-0.6106870229007634,0.24427480916030533,-0.3511450381679389
1646443353465.4236,-0.1214599609375,-0.0089111328125,0.00836181640625,-0.6259541984732825,0.22900763358778625,-0.3511450381679389
1646443353465.9844,-0.1214599609375,-0.0089111328125,0.00836181640625,-0.6259541984732825,0.22900763358778625,-0.3511450381679389
1646443353466.5444,-0.12158203125,-0.00848388671875,0.00848388671875,-0.6259541984732825,0.22900763358778625,-0.35877862595419846
1646443353467.1033,-0.12158203125,-0.00848388671875,0.00848388671875,-0.6259541984732825,0.22900763358778625,-0.35877862595419846
1646443353467.663,-0.12188720703125,-0.0086669921875,0.00823974609375,-0.6259541984732825,0.2366412213740458,-0.35877862595419846
1646443353468.2224,-0.12188720703125,-0.0086669921875,0.00823974609375,-0.6259541984732825,0.2366412213740458,-0.35877862595419846
1646443353468.7817,-0.12213134765625,-0.00921630859375,0.008056640625,-0.6335877862595419,0.24427480916030533,-0.3511450381679389
1646443353469.3406,-0.12200927734375,-0.009521484375,0.0076904296875,-0.6259541984732825,0.24427480916030533,-0.35877862595419846
1646443353469.9014,-0.12200927734375,-0.009521484375,0.0076904296875,-0.6259541984732825,0.24427480916030533,-0.35877862595419846
1646443353470.461,-0.1221923828125,-0.00958251953125,0.00909423828125,-0.6259541984732825,0.1984732824427481,-0.35877862595419846
1646443353471.0217,-0.1221923828125,-0.00958251953125,0.00909423828125,-0.6259541984732825,0.1984732824427481,-0.35877862595419846
1646443353471.5813,-0.12103271484375,-0.00830078125,0.00811767578125,-0.6259541984732825,0.1984732824427481,-0.3511450381679389
1646443353472.1414,-0.12103271484375,-0.00830078125,0.00811767578125,-0.6259541984732825,0.1984732824427481,-0.3511450381679389
1646443353472.6997,-0.12109375,-0.0087890625,0.0084228515625,-0.6106870229007634,0.19083969465648856,-0.35877862595419846
1646443353473.258,-0.12109375,-0.0087890625,0.0084228515625,-0.6106870229007634,0.19083969465648856,-0.35877862595419846
1646443353473.8132,-0.12188720703125,-0.0079345703125,0.00872802734375,-0.6030534351145038,0.20610687022900764,-0.3511450381679389
1646443353474.3738,-0.12127685546875,-0.0078125,0.00982666015625,-0.6106870229007634,0.22137404580152673,-0.3511450381679389
1646443353474.9321,-0.12127685546875,-0.0078125,0.00982666015625,-0.6106870229007634,0.22137404580152673,-0.3511450381679389
1646443353475.4893,-0.12164306640625,-0.00848388671875,0.009521484375,-0.6106870229007634,0.21374045801526717,-0.3511450381679389
1646443353476.0486,-0.12164306640625,-0.00848388671875,0.009521484375,-0.6106870229007634,0.21374045801526717,-0.3511450381679389
1646443353476.6082,-0.120849609375,-0.00860595703125,0.00909423828125,-0.6030534351145038,0.1984732824427481,-0.35877862595419846
1646443353477.1665,-0.120849609375,-0.00860595703125,0.00909423828125,-0.6030534351145038,0.1984732824427481,-0.35877862595419846
1646443353477.7253,-0.12066650390625,-0.00836181640625,0.00885009765625,-0.6030534351145038,0.183206106870229,-0.366412213740458
1646443353478.285,-0.12066650390625,-0.00836181640625,0.00885009765625,-0.6030534351145038,0.183206106870229,-0.366412213740458
1646443353478.8418,-0.12078857421875,-0.00836181640625,0.008544921875,-0.5877862595419847,0.19083969465648856,-0.35877862595419846
1646443353479.4033,-0.12115478515625,-0.008544921875,0.008056640625,-0.5954198473282443,0.1984732824427481,-0.3511450381679389
1646443353479.9614,-0.12115478515625,-0.008544921875,0.008056640625,-0.5954198473282443,0.1984732824427481,-0.3511450381679389
1646443353480.5205,-0.12139892578125,-0.0084228515625,0.0098876953125,-0.6030534351145038,0.20610687022900764,-0.3511450381679389
1646443353481.0803,-0.12139892578125,-0.0084228515625,0.0098876953125,-0.6030534351145038,0.20610687022900764,-0.3511450381679389
1646443353481.641,-0.12139892578125,-0.00836181640625,0.00982666015625,-0.6106870229007634,0.21374045801526717,-0.35877862595419846
1646443353482.2007,-0.12139892578125,-0.00836181640625,0.00982666015625,-0.6106870229007634,0.21374045801526717,-0.35877862595419846
1646443353482.7622,-0.12115478515625,-0.00921630859375,0.009033203125,-0.6030534351145038,0.183206106870229,-0.35877862595419846
1646443353483.3208,-0.12115478515625,-0.00921630859375,0.009033203125,-0.6030534351145038,0.183206106870229,-0.35877862595419846
1646443353483.8794,-0.12115478515625,-0.00848388671875,0.00750732421875,-0.5954198473282443,0.17557251908396945,-0.366412213740458
1646443353484.4392,-0.120849609375,-0.00885009765625,0.00787353515625,-0.6259541984732825,0.19083969465648856,-0.35877862595419846
1646443353484.9995,-0.120849609375,-0.00885009765625,0.00787353515625,-0.6259541984732825,0.19083969465648856,-0.35877862595419846
1646443353485.5598,-0.1209716796875,-0.00848388671875,0.0084228515625,-0.648854961832061,0.1984732824427481,-0.3511450381679389
1646443353486.1187,-0.1209716796875,-0.00848388671875,0.0084228515625,-0.648854961832061,0.1984732824427481,-0.3511450381679389
1646443353486.6785,-0.121337890625,-0.0087890625,0.0084228515625,-0.6335877862595419,0.19083969465648856,-0.35877862595419846
1646443353487.2358,-0.121337890625,-0.0087890625,0.0084228515625,-0.6335877862595419,0.19083969465648856,-0.35877862595419846
1646443353487.7947,-0.12109375,-0.00860595703125,0.00823974609375,-0.6106870229007634,0.17557251908396945,-0.366412213740458
1646443353488.3523,-0.121337890625,-0.00811767578125,0.0078125,-0.6030534351145038,0.17557251908396945,-0.366412213740458
1646443353488.9104,-0.121337890625,-0.00811767578125,0.0078125,-0.6030534351145038,0.17557251908396945,-0.366412213740458
1646443353489.4668,-0.121826171875,-0.00848388671875,0.0081787109375,-0.6030534351145038,0.16793893129770993,-0.35877862595419846
1646443353490.028,-0.121826171875,-0.00848388671875,0.0081787109375,-0.6030534351145038,0.16793893129770993,-0.35877862595419846
1646443353490.5864,-0.12091064453125,-0.00921630859375,0.00885009765625,-0.6183206106870229,0.15267175572519084,-0.3511450381679389
1646443353491.147,-0.12091064453125,-0.00921630859375,0.00885009765625,-0.6183206106870229,0.15267175572519084,-0.3511450381679389
1646443353491.7363,-0.12030029296875,-0.00860595703125,0.008544921875,-0.6259541984732825,0.1450381679389313,-0.35877862595419846
1646443353492.2969,-0.12030029296875,-0.00860595703125,0.008544921875,-0.6259541984732825,0.1450381679389313,-0.35877862595419846
1646443353492.857,-0.12066650390625,-0.008544921875,0.0086669921875,-0.6183206106870229,0.15267175572519084,-0.35877862595419846
1646443353493.4163,-0.12152099609375,-0.0086669921875,0.0093994140625,-0.6030534351145038,0.16030534351145037,-0.35877862595419846
1646443353493.978,-0.12152099609375,-0.0086669921875,0.0093994140625,-0.6030534351145038,0.16030534351145037,-0.35877862595419846
1646443353494.537,-0.121337890625,-0.00872802734375,0.00933837890625,-0.5954198473282443,0.15267175572519084,-0.35877862595419846
1646443353495.0981,-0.121337890625,-0.00872802734375,0.00933837890625,-0.5954198473282443,0.15267175572519084,-0.35877862595419846
1646443353495.658,-0.12152099609375,-0.0087890625,0.00787353515625,-0.6030534351145038,0.1450381679389313,-0.35877862595419846
1646443353496.218,-0.12152099609375,-0.0087890625,0.00787353515625,-0.6030534351145038,0.1450381679389313,-0.35877862595419846
1646443353496.7764,-0.12139892578125,-0.00811767578125,0.0074462890625,-0.6030534351145038,0.15267175572519084,-0.366412213740458
1646443353497.3374,-0.12109375,-0.0084228515625,0.00872802734375,-0.6030534351145038,0.16793893129770993,-0.366412213740458
1646443353497.895,-0.12109375,-0.0084228515625,0.00872802734375,-0.6030534351145038,0.16793893129770993,-0.366412213740458
1646443353498.5671,-0.12127685546875,-0.0087890625,0.00921630859375,-0.6106870229007634,0.16793893129770993,-0.3511450381679389
1646443353499.1313,-0.12127685546875,-0.0087890625,0.00921630859375,-0.6106870229007634,0.16793893129770993,-0.3511450381679389
1646443353499.6912,-0.12109375,-0.00946044921875,0.00830078125,-0.6106870229007634,0.15267175572519084,-0.3435114503816794
1646443353500.25,-0.12109375,-0.00946044921875,0.00830078125,-0.6106870229007634,0.15267175572519084,-0.3435114503816794
1646443353500.8054,-0.1220703125,-0.00872802734375,0.0084228515625,-0.6030534351145038,0.16793893129770993,-0.3511450381679389
1646443353501.3645,-0.1220703125,-0.008544921875,0.0096435546875,-0.5954198473282443,0.17557251908396945,-0.3511450381679389
1646443353501.9224,-0.1220703125,-0.008544921875,0.0096435546875,-0.5954198473282443,0.17557251908396945,-0.3511450381679389
1646443353502.4817,-0.12139892578125,-0.00860595703125,0.0089111328125,-0.5954198473282443,0.15267175572519084,-0.3511450381679389
1646443353503.0408,-0.12139892578125,-0.00860595703125,0.0089111328125,-0.5954198473282443,0.15267175572519084,-0.3511450381679389
1646443353503.6025,-0.1212158203125,-0.00860595703125,0.00897216796875,-0.5954198473282443,0.15267175572519084,-0.35877862595419846
1646443353504.1619,-0.1212158203125,-0.00860595703125,0.00897216796875,-0.5954198473282443,0.15267175572519084,-0.35877862595419846
1646443353504.7234,-0.1217041015625,-0.00885009765625,0.00885009765625,-0.6030534351145038,0.16030534351145037,-0.3511450381679389
1646443353505.2812,-0.1217041015625,-0.00885009765625,0.00885009765625,-0.6030534351145038,0.16030534351145037,-0.3511450381679389
1646443353505.8416,-0.121337890625,-0.00909423828125,0.009033203125,-0.6106870229007634,0.16030534351145037,-0.35877862595419846
1646443353506.3994,-0.12115478515625,-0.00958251953125,0.00897216796875,-0.5954198473282443,0.16793893129770993,-0.366412213740458
1646443353506.9595,-0.12115478515625,-0.00958251953125,0.00897216796875,-0.5954198473282443,0.16793893129770993,-0.366412213740458
1646443353507.5195,-0.1214599609375,-0.00933837890625,0.0087890625,-0.5954198473282443,0.19083969465648856,-0.366412213740458
1646443353508.078,-0.1214599609375,-0.00933837890625,0.0087890625,-0.5954198473282443,0.19083969465648856,-0.366412213740458
1646443353508.636,-0.1209716796875,-0.0087890625,0.00860595703125,-0.6106870229007634,0.19083969465648856,-0.3435114503816794
1646443353509.1929,-0.1209716796875,-0.0087890625,0.00860595703125,-0.6106870229007634,0.19083969465648856,-0.3435114503816794
1646443353509.7527,-0.1207275390625,-0.00897216796875,0.0084228515625,-0.6030534351145038,0.17557251908396945,-0.3435114503816794
1646443353510.3113,-0.1207275390625,-0.00897216796875,0.0084228515625,-0.6030534351145038,0.17557251908396945,-0.3435114503816794
1646443353510.8718,-0.1212158203125,-0.00897216796875,0.00823974609375,-0.5877862595419847,0.17557251908396945,-0.35877862595419846
1646443353511.432,-0.12091064453125,-0.00885009765625,0.00860595703125,-0.5877862595419847,0.16793893129770993,-0.3435114503816794
1646443353511.9932,-0.12091064453125,-0.00885009765625,0.00860595703125,-0.5877862595419847,0.16793893129770993,-0.3435114503816794
1646443353512.5532,-0.12158203125,-0.00897216796875,0.00921630859375,-0.5801526717557252,0.17557251908396945,-0.3511450381679389
1646443353513.1133,-0.12158203125,-0.00897216796875,0.00921630859375,-0.5801526717557252,0.17557251908396945,-0.3511450381679389
1646443353513.6724,-0.1217041015625,-0.00848388671875,0.00872802734375,-0.6030534351145038,0.183206106870229,-0.35877862595419846
1646443353514.2334,-0.1217041015625,-0.00848388671875,0.00872802734375,-0.6030534351145038,0.183206106870229,-0.35877862595419846
1646443353514.7922,-0.12176513671875,-0.00872802734375,0.008056640625,-0.6030534351145038,0.183206106870229,-0.3511450381679389
1646443353515.3506,-0.12139892578125,-0.00872802734375,0.0087890625,-0.6030534351145038,0.1984732824427481,-0.3435114503816794
1646443353515.9082,-0.12139892578125,-0.00872802734375,0.0087890625,-0.6030534351145038,0.1984732824427481,-0.3435114503816794
1646443353516.466,-0.12103271484375,-0.0089111328125,0.0086669921875,-0.6030534351145038,0.183206106870229,-0.35877862595419846
1646443353517.0266,-0.12103271484375,-0.0089111328125,0.0086669921875,-0.6030534351145038,0.183206106870229,-0.35877862595419846
1646443353517.5857,-0.12078857421875,-0.00909423828125,0.009521484375,-0.6106870229007634,0.17557251908396945,-0.3511450381679389
1646443353518.1465,-0.12078857421875,-0.00909423828125,0.009521484375,-0.6106870229007634,0.17557251908396945,-0.3511450381679389
1646443353518.7058,-0.1219482421875,-0.009033203125,0.00897216796875,-0.6106870229007634,0.19083969465648856,-0.3435114503816794
1646443353519.2651,-0.1219482421875,-0.009033203125,0.00897216796875,-0.6106870229007634,0.19083969465648856,-0.3435114503816794
1646443353519.8237,-0.12115478515625,-0.0089111328125,0.0091552734375,-0.6030534351145038,0.19083969465648856,-0.3435114503816794
1646443353520.3845,-0.12176513671875,-0.00885009765625,0.00909423828125,-0.5877862595419847,0.17557251908396945,-0.33587786259541985
1646443353520.9448,-0.12176513671875,-0.00885009765625,0.00909423828125,-0.5877862595419847,0.17557251908396945,-0.33587786259541985
1646443353521.5078,-0.1217041015625,-0.00885009765625,0.0089111328125,-0.5954198473282443,0.183206106870229,-0.33587786259541985
1646443353522.0674,-0.1217041015625,-0.00885009765625,0.0089111328125,-0.5954198473282443,0.183206106870229,-0.33587786259541985
1646443353522.6274,-0.12042236328125,-0.0081787109375,0.0089111328125,-0.6106870229007634,0.19083969465648856,-0.3511450381679389
1646443353523.1868,-0.12042236328125,-0.0081787109375,0.0089111328125,-0.6106870229007634,0.19083969465648856,-0.3511450381679389
1646443353523.746,-0.12066650390625,-0.00885009765625,0.008544921875,-0.6106870229007634,0.20610687022900764,-0.3511450381679389
1646443353524.3052,-0.12066650390625,-0.00885009765625,0.008544921875,-0.6106870229007634,0.20610687022900764,-0.3511450381679389
1646443353524.8643,-0.12109375,-0.00848388671875,0.0086669921875,-0.6106870229007634,0.1984732824427481,-0.3511450381679389
1646443353525.4224,-0.12152099609375,-0.0081787109375,0.00885009765625,-0.5954198473282443,0.20610687022900764,-0.366412213740458
1646443353525.982,-0.12152099609375,-0.0081787109375,0.00885009765625,-0.5954198473282443,0.20610687022900764,-0.366412213740458
1646443353526.5417,-0.1214599609375,-0.0079345703125,0.00836181640625,-0.5877862595419847,0.22137404580152673,-0.3511450381679389
1646443353527.101,-0.1214599609375,-0.0079345703125,0.00836181640625,-0.5877862595419847,0.22137404580152673,-0.3511450381679389
1646443353527.6611,-0.12158203125,-0.00921630859375,0.009521484375,-0.5954198473282443,0.20610687022900764,-0.3435114503816794
1646443353528.22,-0.12158203125,-0.00921630859375,0.009521484375,-0.5954198473282443,0.20610687022900764,-0.3435114503816794
1646443353528.7783,-0.12188720703125,-0.00836181640625,0.00860595703125,-0.6183206106870229,0.21374045801526717,-0.33587786259541985
1646443353529.3386,-0.12200927734375,-0.00860595703125,0.0084228515625,-0.6259541984732825,0.22900763358778625,-0.3435114503816794
1646443353529.8987,-0.12200927734375,-0.00860595703125,0.0084228515625,-0.6259541984732825,0.22900763358778625,-0.3435114503816794
1646443353530.4585,-0.12127685546875,-0.0091552734375,0.00823974609375,-0.6335877862595419,0.22137404580152673,-0.35877862595419846
1646443353531.0198,-0.12127685546875,-0.0091552734375,0.00823974609375,-0.6335877862595419,0.22137404580152673,-0.35877862595419846
1646443353531.5803,-0.1207275390625,-0.00872802734375,0.00775146484375,-0.6030534351145038,0.20610687022900764,-0.3511450381679389
1646443353532.14,-0.1207275390625,-0.00872802734375,0.00775146484375,-0.6030534351145038,0.20610687022900764,-0.3511450381679389
1646443353532.698,-0.120849609375,-0.0087890625,0.00823974609375,-0.6030534351145038,0.21374045801526717,-0.32061068702290074
1646443353533.2556,-0.120849609375,-0.0087890625,0.00823974609375,-0.6030534351145038,0.21374045801526717,-0.32061068702290074
1646443353533.8154,-0.1212158203125,-0.00811767578125,0.00823974609375,-0.6259541984732825,0.22900763358778625,-0.3282442748091603
1646443353534.4824,-0.120849609375,-0.0078125,0.0086669921875,-0.6412213740458015,0.2366412213740458,-0.3511450381679389
1646443353535.0435,-0.120849609375,-0.0078125,0.0086669921875,-0.6412213740458015,0.2366412213740458,-0.3511450381679389
1646443353535.6006,-0.12078857421875,-0.00823974609375,0.00933837890625,-0.6335877862595419,0.22900763358778625,-0.366412213740458
1646443353536.1626,-0.12078857421875,-0.00823974609375,0.00933837890625,-0.6335877862595419,0.22900763358778625,-0.366412213740458
1646443353536.7222,-0.12103271484375,-0.00836181640625,0.0093994140625,-0.6259541984732825,0.1984732824427481,-0.35877862595419846
1646443353537.2825,-0.12103271484375,-0.00836181640625,0.0093994140625,-0.6259541984732825,0.1984732824427481,-0.35877862595419846
1646443353537.842,-0.12176513671875,-0.00872802734375,0.00946044921875,-0.6335877862595419,0.20610687022900764,-0.35877862595419846
1646443353538.402,-0.1219482421875,-0.00860595703125,0.00811767578125,-0.6183206106870229,0.22900763358778625,-0.3511450381679389
1646443353538.9602,-0.1219482421875,-0.00860595703125,0.00811767578125,-0.6183206106870229,0.22900763358778625,-0.3511450381679389
1646443353539.5195,-0.121826171875,-0.00836181640625,0.0078125,-0.6183206106870229,0.2366412213740458,-0.35877862595419846
1646443353540.0764,-0.121826171875,-0.00836181640625,0.0078125,-0.6183206106870229,0.2366412213740458,-0.35877862595419846
1646443353540.6338,-0.1217041015625,-0.0087890625,0.008544921875,-0.6335877862595419,0.24427480916030533,-0.35877862595419846
1646443353541.1934,-0.1217041015625,-0.0087890625,0.008544921875,-0.6335877862595419,0.24427480916030533,-0.35877862595419846
1646443353541.7764,-0.12060546875,-0.00848388671875,0.009033203125,-0.6412213740458015,0.25190839694656486,-0.35877862595419846
1646443353542.337,-0.1212158203125,-0.0089111328125,0.0084228515625,-0.6259541984732825,0.25190839694656486,-0.3511450381679389
1646443353542.8953,-0.1212158203125,-0.0089111328125,0.0084228515625,-0.6259541984732825,0.25190839694656486,-0.3511450381679389
1646443353543.455,-0.12078857421875,-0.0084228515625,0.00762939453125,-0.6030534351145038,0.21374045801526717,-0.3435114503816794
1646443353544.0146,-0.12078857421875,-0.0084228515625,0.00762939453125,-0.6030534351145038,0.21374045801526717,-0.3435114503816794
1646443353544.5752,-0.1201171875,-0.00799560546875,0.007568359375,-0.5954198473282443,0.20610687022900764,-0.35877862595419846
1646443353545.1333,-0.1201171875,-0.00799560546875,0.007568359375,-0.5954198473282443,0.20610687022900764,-0.35877862595419846
1646443353545.6924,-0.12152099609375,-0.00885009765625,0.00775146484375,-0.6106870229007634,0.22900763358778625,-0.37404580152671757
1646443353546.2522,-0.12152099609375,-0.00885009765625,0.00775146484375,-0.6106870229007634,0.22900763358778625,-0.37404580152671757
1646443353546.8115,-0.12109375,-0.00811767578125,0.0089111328125,-0.6183206106870229,0.22900763358778625,-0.3816793893129771
1646443353547.369,-0.1212158203125,-0.0079345703125,0.0079345703125,-0.6030534351145038,0.22900763358778625,-0.366412213740458
1646443353547.9265,-0.1212158203125,-0.0079345703125,0.0079345703125,-0.6030534351145038,0.22900763358778625,-0.366412213740458
1646443353548.4873,-0.12103271484375,-0.00799560546875,0.00775146484375,-0.6030534351145038,0.22137404580152673,-0.366412213740458
1646443353549.047,-0.12103271484375,-0.00799560546875,0.00775146484375,-0.6030534351145038,0.22137404580152673,-0.366412213740458
1646443353549.6074,-0.120849609375,-0.0087890625,0.00726318359375,-0.6030534351145038,0.22900763358778625,-0.366412213740458
1646443353550.1648,-0.120849609375,-0.0087890625,0.00726318359375,-0.6030534351145038,0.22900763358778625,-0.366412213740458
1646443353550.723,-0.121337890625,-0.00860595703125,0.00897216796875,-0.6106870229007634,0.22900763358778625,-0.35877862595419846
1646443353551.285,-0.121337890625,-0.00860595703125,0.00897216796875,-0.6106870229007634,0.22900763358778625,-0.35877862595419846
1646443353551.8457,-0.1212158203125,-0.00897216796875,0.00897216796875,-0.6412213740458015,0.22900763358778625,-0.35877862595419846
1646443353552.4058,-0.12066650390625,-0.00872802734375,0.008544921875,-0.6564885496183206,0.20610687022900764,-0.366412213740458
1646443353552.966,-0.12066650390625,-0.00872802734375,0.008544921875,-0.6564885496183206,0.20610687022900764,-0.366412213740458
1646443353553.5242,-0.12109375,-0.00848388671875,0.0087890625,-0.6183206106870229,0.20610687022900764,-0.3816793893129771
1646443353554.0815,-0.12109375,-0.00848388671875,0.0087890625,-0.6183206106870229,0.20610687022900764,-0.3816793893129771
1646443353554.637,-0.12115478515625,-0.0086669921875,0.00872802734375,-0.6183206106870229,0.20610687022900764,-0.3816793893129771
1646443353555.195,-0.12115478515625,-0.0086669921875,0.00872802734375,-0.6183206106870229,0.20610687022900764,-0.3816793893129771
1646443353555.7537,-0.12060546875,-0.00872802734375,0.0087890625,-0.6183206106870229,0.20610687022900764,-0.37404580152671757
1646443353556.3103,-0.12060546875,-0.00872802734375,0.0087890625,-0.6183206106870229,0.20610687022900764,-0.37404580152671757
1646443353556.8691,-0.1209716796875,-0.009033203125,0.00927734375,-0.6183206106870229,0.1984732824427481,-0.35877862595419846
1646443353557.4275,-0.12152099609375,-0.0079345703125,0.00982666015625,-0.6259541984732825,0.19083969465648856,-0.366412213740458
1646443353557.988,-0.12152099609375,-0.0079345703125,0.00982666015625,-0.6259541984732825,0.19083969465648856,-0.366412213740458
1646443353558.5469,-0.12176513671875,-0.0081787109375,0.0084228515625,-0.6259541984732825,0.17557251908396945,-0.37404580152671757
1646443353559.1077,-0.12176513671875,-0.0081787109375,0.0084228515625,-0.6259541984732825,0.17557251908396945,-0.37404580152671757
1646443353559.667,-0.1212158203125,-0.00860595703125,0.00799560546875,-0.6183206106870229,0.16793893129770993,-0.3816793893129771
1646443353560.227,-0.1212158203125,-0.00860595703125,0.00799560546875,-0.6183206106870229,0.16793893129770993,-0.3816793893129771
1646443353560.7866,-0.12066650390625,-0.00848388671875,0.008544921875,-0.6030534351145038,0.16793893129770993,-0.3816793893129771
1646443353561.3481,-0.12115478515625,-0.00872802734375,0.00836181640625,-0.6106870229007634,0.19083969465648856,-0.3816793893129771
1646443353561.9075,-0.12115478515625,-0.00872802734375,0.00836181640625,-0.6106870229007634,0.19083969465648856,-0.3816793893129771
1646443353562.4688,-0.1209716796875,-0.00921630859375,0.00787353515625,-0.6183206106870229,0.183206106870229,-0.37404580152671757
1646443353563.0276,-0.1209716796875,-0.00921630859375,0.00787353515625,-0.6183206106870229,0.183206106870229,-0.37404580152671757
1646443353563.5864,-0.12109375,-0.0089111328125,0.00775146484375,-0.6412213740458015,0.16030534351145037,-0.366412213740458
1646443353564.1448,-0.12109375,-0.0089111328125,0.00775146484375,-0.6412213740458015,0.16030534351145037,-0.366412213740458
1646443353564.7024,-0.1214599609375,-0.00909423828125,0.0086669921875,-0.6259541984732825,0.1450381679389313,-0.37404580152671757
1646443353565.2627,-0.1214599609375,-0.00909423828125,0.0086669921875,-0.6259541984732825,0.1450381679389313,-0.37404580152671757
1646443353565.8223,-0.1219482421875,-0.009033203125,0.00897216796875,-0.6030534351145038,0.16793893129770993,-0.3816793893129771
1646443353566.382,-0.12188720703125,-0.0086669921875,0.00946044921875,-0.5954198473282443,0.15267175572519084,-0.37404580152671757
1646443353566.942,-0.12188720703125,-0.0086669921875,0.00946044921875,-0.5954198473282443,0.15267175572519084,-0.37404580152671757
1646443353567.5024,-0.1217041015625,-0.008544921875,0.00836181640625,-0.6106870229007634,0.15267175572519084,-0.366412213740458
1646443353568.061,-0.1217041015625,-0.008544921875,0.00836181640625,-0.6106870229007634,0.15267175572519084,-0.366412213740458
1646443353568.6191,-0.12078857421875,-0.008544921875,0.00860595703125,-0.6106870229007634,0.15267175572519084,-0.35877862595419846
1646443353569.1785,-0.12078857421875,-0.008544921875,0.00860595703125,-0.6106870229007634,0.15267175572519084,-0.35877862595419846
1646443353569.7393,-0.12078857421875,-0.00836181640625,0.0091552734375,-0.6183206106870229,0.1450381679389313,-0.35877862595419846
1646443353570.4136,-0.120849609375,-0.00811767578125,0.00933837890625,-0.6183206106870229,0.1450381679389313,-0.366412213740458
1646443353570.976,-0.120849609375,-0.00811767578125,0.00933837890625,-0.6183206106870229,0.1450381679389313,-0.366412213740458
1646443353571.5354,-0.12103271484375,-0.0091552734375,0.00738525390625,-0.6259541984732825,0.1450381679389313,-0.37404580152671757
1646443353572.0957,-0.12103271484375,-0.0091552734375,0.00738525390625,-0.6259541984732825,0.1450381679389313,-0.37404580152671757
1646443353572.6575,-0.12176513671875,-0.0079345703125,0.00787353515625,-0.6030534351145038,0.1297709923664122,-0.3969465648854962
1646443353573.2173,-0.12176513671875,-0.0079345703125,0.00787353515625,-0.6030534351145038,0.1297709923664122,-0.3969465648854962
1646443353573.7773,-0.1214599609375,-0.00885009765625,0.0093994140625,-0.6030534351145038,0.10687022900763359,-0.40458015267175573
1646443353574.3372,-0.1219482421875,-0.00885009765625,0.00909423828125,-0.6106870229007634,0.1297709923664122,-0.3893129770992366
1646443353574.897,-0.1219482421875,-0.00885009765625,0.00909423828125,-0.6106870229007634,0.1297709923664122,-0.3893129770992366
1646443353575.456,-0.1224365234375,-0.008056640625,0.0087890625,-0.6106870229007634,0.1450381679389313,-0.366412213740458
1646443353576.0134,-0.1224365234375,-0.008056640625,0.0087890625,-0.6106870229007634,0.1450381679389313,-0.366412213740458
1646443353576.5698,-0.121826171875,-0.0081787109375,0.00830078125,-0.6030534351145038,0.15267175572519084,-0.35877862595419846
1646443353577.129,-0.121826171875,-0.0081787109375,0.00830078125,-0.6030534351145038,0.15267175572519084,-0.35877862595419846
1646443353577.687,-0.12200927734375,-0.00885009765625,0.00872802734375,-0.6259541984732825,0.15267175572519084,-0.37404580152671757
1646443353578.2466,-0.12200927734375,-0.00885009765625,0.00872802734375,-0.6259541984732825,0.15267175572519084,-0.37404580152671757
1646443353578.8076,-0.12158203125,-0.00799560546875,0.00909423828125,-0.6335877862595419,0.1450381679389313,-0.3816793893129771
1646443353579.366,-0.12115478515625,-0.008056640625,0.00958251953125,-0.6183206106870229,0.12213740458015267,-0.3816793893129771
1646443353579.925,-0.12115478515625,-0.008056640625,0.00958251953125,-0.6183206106870229,0.12213740458015267,-0.3816793893129771
1646443353580.4834,-0.1214599609375,-0.0086669921875,0.00830078125,-0.6183206106870229,0.1297709923664122,-0.3816793893129771
1646443353581.0422,-0.1214599609375,-0.0086669921875,0.00830078125,-0.6183206106870229,0.1297709923664122,-0.3816793893129771
1646443353581.5996,-0.1209716796875,-0.00909423828125,0.00885009765625,-0.6030534351145038,0.13740458015267176,-0.37404580152671757
1646443353582.1611,-0.1209716796875,-0.00909423828125,0.00885009765625,-0.6030534351145038,0.13740458015267176,-0.37404580152671757
1646443353582.7205,-0.12060546875,-0.008544921875,0.009521484375,-0.6259541984732825,0.1297709923664122,-0.3816793893129771
1646443353583.2788,-0.12060546875,-0.008544921875,0.009521484375,-0.6259541984732825,0.1297709923664122,-0.3816793893129771
1646443353583.8354,-0.12060546875,-0.0084228515625,0.0093994140625,-0.6259541984732825,0.15267175572519084,-0.3893129770992366
1646443353584.396,-0.1212158203125,-0.008544921875,0.00823974609375,-0.6106870229007634,0.13740458015267176,-0.3893129770992366
1646443353584.9539,-0.1212158203125,-0.008544921875,0.00823974609375,-0.6106870229007634,0.13740458015267176,-0.3893129770992366
1646443353585.5142,-0.1212158203125,-0.008544921875,0.007568359375,-0.6106870229007634,0.1450381679389313,-0.3893129770992366
1646443353586.0715,-0.1212158203125,-0.008544921875,0.007568359375,-0.6106870229007634,0.1450381679389313,-0.3893129770992366
1646443353586.629,-0.1207275390625,-0.00811767578125,0.0078125,-0.6030534351145038,0.16030534351145037,-0.3816793893129771
1646443353587.1865,-0.1207275390625,-0.00811767578125,0.0078125,-0.6030534351145038,0.16030534351145037,-0.3816793893129771
1646443353587.744,-0.12115478515625,-0.009033203125,0.00897216796875,-0.6030534351145038,0.1450381679389313,-0.37404580152671757
1646443353588.3032,-0.12115478515625,-0.009033203125,0.00897216796875,-0.6030534351145038,0.1450381679389313,-0.37404580152671757
1646443353588.863,-0.12139892578125,-0.00848388671875,0.008056640625,-0.6106870229007634,0.13740458015267176,-0.3816793893129771
1646443353589.423,-0.12152099609375,-0.00872802734375,0.00897216796875,-0.6030534351145038,0.15267175572519084,-0.366412213740458
1646443353589.982,-0.12152099609375,-0.00872802734375,0.00897216796875,-0.6030534351145038,0.15267175572519084,-0.366412213740458
1646443353590.542,-0.12078857421875,-0.009033203125,0.00909423828125,-0.5954198473282443,0.16030534351145037,-0.366412213740458
1646443353591.1003,-0.12078857421875,-0.009033203125,0.00909423828125,-0.5954198473282443,0.16030534351145037,-0.366412213740458
1646443353591.6604,-0.12152099609375,-0.00933837890625,0.00811767578125,-0.5954198473282443,0.16030534351145037,-0.37404580152671757
1646443353592.2207,-0.12152099609375,-0.00933837890625,0.00811767578125,-0.5954198473282443,0.16030534351145037,-0.37404580152671757
1646443353592.7815,-0.12127685546875,-0.00909423828125,0.0087890625,-0.6183206106870229,0.1450381679389313,-0.3816793893129771
1646443353593.3396,-0.12152099609375,-0.00921630859375,0.0087890625,-0.6106870229007634,0.16030534351145037,-0.3893129770992366
1646443353593.899,-0.12152099609375,-0.00921630859375,0.0087890625,-0.6106870229007634,0.16030534351145037,-0.3893129770992366
1646443353594.4573,-0.1221923828125,-0.0093994140625,0.00958251953125,-0.5954198473282443,0.183206106870229,-0.3816793893129771
1646443353595.016,-0.1221923828125,-0.0093994140625,0.00958251953125,-0.5954198473282443,0.183206106870229,-0.3816793893129771
1646443353595.5732,-0.12188720703125,-0.00823974609375,0.00897216796875,-0.6030534351145038,0.17557251908396945,-0.3893129770992366
1646443353596.1328,-0.12188720703125,-0.00823974609375,0.00897216796875,-0.6030534351145038,0.17557251908396945,-0.3893129770992366
1646443353596.6926,-0.12158203125,-0.0078125,0.00860595703125,-0.5954198473282443,0.16793893129770993,-0.37404580152671757
1646443353597.25,-0.12158203125,-0.0078125,0.00860595703125,-0.5954198473282443,0.16793893129770993,-0.37404580152671757
1646443353597.808,-0.12127685546875,-0.00836181640625,0.0086669921875,-0.5954198473282443,0.183206106870229,-0.366412213740458
1646443353598.3662,-0.12164306640625,-0.009033203125,0.008544921875,-0.6030534351145038,0.183206106870229,-0.37404580152671757
1646443353598.925,-0.12164306640625,-0.009033203125,0.008544921875,-0.6030534351145038,0.183206106870229,-0.37404580152671757
1646443353599.4824,-0.121337890625,-0.008544921875,0.0087890625,-0.6259541984732825,0.19083969465648856,-0.3816793893129771
1646443353600.0413,-0.121337890625,-0.008544921875,0.0087890625,-0.6259541984732825,0.19083969465648856,-0.3816793893129771
1646443353600.598,-0.1217041015625,-0.00885009765625,0.008544921875,-0.6106870229007634,0.20610687022900764,-0.37404580152671757
1646443353601.1575,-0.1217041015625,-0.00885009765625,0.008544921875,-0.6106870229007634,0.20610687022900764,-0.37404580152671757
1646443353601.7559,-0.1219482421875,-0.0089111328125,0.00982666015625,-0.6106870229007634,0.20610687022900764,-0.3511450381679389
1646443353602.3171,-0.1219482421875,-0.0089111328125,0.00982666015625,-0.6106870229007634,0.20610687022900764,-0.3511450381679389
1646443353602.876,-0.1220703125,-0.00860595703125,0.00872802734375,-0.6183206106870229,0.20610687022900764,-0.33587786259541985
1646443353603.4343,-0.1219482421875,-0.0091552734375,0.0086669921875,-0.6183206106870229,0.21374045801526717,-0.33587786259541985
1646443353603.9941,-0.1219482421875,-0.0091552734375,0.0086669921875,-0.6183206106870229,0.21374045801526717,-0.33587786259541985
1646443353604.5537,-0.1214599609375,-0.00848388671875,0.0089111328125,-0.6183206106870229,0.1984732824427481,-0.3511450381679389
1646443353605.1138,-0.1214599609375,-0.00848388671875,0.0089111328125,-0.6183206106870229,0.1984732824427481,-0.3511450381679389
1646443353605.673,-0.12176513671875,-0.00897216796875,0.0086669921875,-0.6259541984732825,0.1984732824427481,-0.366412213740458
1646443353606.3489,-0.12164306640625,-0.00927734375,0.00787353515625,-0.6259541984732825,0.22137404580152673,-0.37404580152671757
1646443353606.914,-0.12164306640625,-0.00927734375,0.00787353515625,-0.6259541984732825,0.22137404580152673,-0.37404580152671757
1646443353607.4768,-0.12109375,-0.00872802734375,0.00927734375,-0.6259541984732825,0.22900763358778625,-0.366412213740458
1646443353608.033,-0.12109375,-0.00872802734375,0.00927734375,-0.6259541984732825,0.22900763358778625,-0.366412213740458
1646443353608.5903,-0.12127685546875,-0.00909423828125,0.0084228515625,-0.6106870229007634,0.22900763358778625,-0.35877862595419846
1646443353609.1504,-0.12127685546875,-0.00909423828125,0.0084228515625,-0.6106870229007634,0.22900763358778625,-0.35877862595419846
1646443353609.7112,-0.1214599609375,-0.00872802734375,0.0091552734375,-0.6030534351145038,0.21374045801526717,-0.366412213740458
1646443353610.27,-0.1214599609375,-0.00872802734375,0.0091552734375,-0.6030534351145038,0.21374045801526717,-0.366412213740458
1646443353610.8274,-0.12091064453125,-0.00836181640625,0.00970458984375,-0.6106870229007634,0.20610687022900764,-0.37404580152671757
1646443353611.3892,-0.12042236328125,-0.0087890625,0.00927734375,-0.6183206106870229,0.20610687022900764,-0.37404580152671757
1646443353611.9468,-0.12042236328125,-0.0087890625,0.00927734375,-0.6183206106870229,0.20610687022900764,-0.37404580152671757
1646443353612.5056,-0.12127685546875,-0.0086669921875,0.00909423828125,-0.6183206106870229,0.20610687022900764,-0.35877862595419846
1646443353613.0657,-0.12127685546875,-0.0086669921875,0.00909423828125,-0.6183206106870229,0.20610687022900764,-0.35877862595419846
1646443353613.627,-0.1214599609375,-0.00860595703125,0.00927734375,-0.6030534351145038,0.22137404580152673,-0.3511450381679389
1646443353614.184,-0.1214599609375,-0.00860595703125,0.00927734375,-0.6030534351145038,0.22137404580152673,-0.3511450381679389
1646443353614.7427,-0.12066650390625,-0.00823974609375,0.00909423828125,-0.6106870229007634,0.22900763358778625,-0.3511450381679389
1646443353615.3027,-0.12066650390625,-0.00823974609375,0.00909423828125,-0.6106870229007634,0.22900763358778625,-0.3511450381679389
1646443353615.864,-0.120849609375,-0.0093994140625,0.0078125,-0.6030534351145038,0.22137404580152673,-0.35877862595419846
1646443353616.4211,-0.12103271484375,-0.009033203125,0.00823974609375,-0.5954198473282443,0.22900763358778625,-0.366412213740458
1646443353616.9817,-0.12103271484375,-0.009033203125,0.00823974609375,-0.5954198473282443,0.22900763358778625,-0.366412213740458
1646443353617.5413,-0.1204833984375,-0.0087890625,0.00836181640625,-0.5954198473282443,0.22137404580152673,-0.35877862595419846
1646443353618.0996,-0.1204833984375,-0.0087890625,0.00836181640625,-0.5954198473282443,0.22137404580152673,-0.35877862595419846
1646443353618.658,-0.12054443359375,-0.0089111328125,0.0091552734375,-0.5954198473282443,0.20610687022900764,-0.35877862595419846
1646443353619.2168,-0.12054443359375,-0.0089111328125,0.0091552734375,-0.5954198473282443,0.20610687022900764,-0.35877862595419846
1646443353619.7764,-0.1209716796875,-0.0089111328125,0.00946044921875,-0.5877862595419847,0.19083969465648856,-0.33587786259541985
1646443353620.3374,-0.12158203125,-0.0089111328125,0.0089111328125,-0.6030534351145038,0.21374045801526717,-0.32061068702290074
1646443353620.8977,-0.12158203125,-0.0089111328125,0.0089111328125,-0.6030534351145038,0.21374045801526717,-0.32061068702290074
1646443353621.456,-0.12127685546875,-0.00836181640625,0.0078125,-0.6106870229007634,0.22900763358778625,-0.3435114503816794
1646443353622.0144,-0.12127685546875,-0.00836181640625,0.0078125,-0.6106870229007634,0.22900763358778625,-0.3435114503816794
1646443353622.5728,-0.12078857421875,-0.008056640625,0.0089111328125,-0.6106870229007634,0.20610687022900764,-0.366412213740458
1646443353623.1326,-0.12078857421875,-0.008056640625,0.0089111328125,-0.6106870229007634,0.20610687022900764,-0.366412213740458
1646443353623.6897,-0.12158203125,-0.0084228515625,0.00982666015625,-0.6106870229007634,0.183206106870229,-0.35877862595419846
1646443353624.249,-0.12158203125,-0.0084228515625,0.00982666015625,-0.6106870229007634,0.183206106870229,-0.35877862595419846
1646443353624.8074,-0.121337890625,-0.00909423828125,0.009521484375,-0.6183206106870229,0.19083969465648856,-0.3435114503816794
1646443353625.3674,-0.120849609375,-0.00921630859375,0.00897216796875,-0.6106870229007634,0.1984732824427481,-0.33587786259541985
1646443353625.9268,-0.120849609375,-0.00921630859375,0.00897216796875,-0.6106870229007634,0.1984732824427481,-0.33587786259541985
1646443353626.4858,-0.120849609375,-0.00872802734375,0.00836181640625,-0.5954198473282443,0.1984732824427481,-0.3511450381679389
1646443353627.0444,-0.120849609375,-0.00872802734375,0.00836181640625,-0.5954198473282443,0.1984732824427481,-0.3511450381679389
1646443353627.6035,-0.12060546875,-0.00823974609375,0.00921630859375,-0.6030534351145038,0.20610687022900764,-0.366412213740458
1646443353628.162,-0.12060546875,-0.00823974609375,0.00921630859375,-0.6030534351145038,0.20610687022900764,-0.366412213740458
1646443353628.719,-0.120849609375,-0.00921630859375,0.0093994140625,-0.6183206106870229,0.20610687022900764,-0.3435114503816794
1646443353629.2783,-0.120849609375,-0.00921630859375,0.0093994140625,-0.6183206106870229,0.20610687022900764,-0.3435114503816794
1646443353629.8374,-0.12115478515625,-0.0096435546875,0.009521484375,-0.6183206106870229,0.19083969465648856,-0.33587786259541985
1646443353630.3982,-0.1214599609375,-0.00872802734375,0.008544921875,-0.6183206106870229,0.183206106870229,-0.3511450381679389
1646443353630.956,-0.1214599609375,-0.00872802734375,0.008544921875,-0.6183206106870229,0.183206106870229,-0.3511450381679389
1646443353631.5156,-0.1214599609375,-0.00830078125,0.0086669921875,-0.6183206106870229,0.19083969465648856,-0.3511450381679389
1646443353632.0732,-0.1214599609375,-0.00830078125,0.0086669921875,-0.6183206106870229,0.19083969465648856,-0.3511450381679389
1646443353632.6328,-0.12158203125,-0.0089111328125,0.00830078125,-0.6106870229007634,0.21374045801526717,-0.35877862595419846
1646443353633.1907,-0.12158203125,-0.0089111328125,0.00830078125,-0.6106870229007634,0.21374045801526717,-0.35877862595419846
1646443353633.7502,-0.1217041015625,-0.00897216796875,0.00848388671875,-0.6259541984732825,0.20610687022900764,-0.35877862595419846
1646443353634.3093,-0.1217041015625,-0.00897216796875,0.00848388671875,-0.6259541984732825,0.20610687022900764,-0.35877862595419846
1646443353634.8694,-0.1219482421875,-0.00927734375,0.0084228515625,-0.6259541984732825,0.1984732824427481,-0.3511450381679389
1646443353635.427,-0.12042236328125,-0.0087890625,0.0079345703125,-0.6106870229007634,0.1984732824427481,-0.33587786259541985
1646443353635.9856,-0.12042236328125,-0.0087890625,0.0079345703125,-0.6106870229007634,0.1984732824427481,-0.33587786259541985
1646443353636.5435,-0.121337890625,-0.00885009765625,0.0087890625,-0.6030534351145038,0.19083969465648856,-0.3282442748091603
1646443353637.1003,-0.121337890625,-0.00885009765625,0.0087890625,-0.6030534351145038,0.19083969465648856,-0.3282442748091603
1646443353637.6594,-0.1214599609375,-0.0089111328125,0.00970458984375,-0.5954198473282443,0.20610687022900764,-0.33587786259541985
1646443353638.2192,-0.1214599609375,-0.0089111328125,0.00970458984375,-0.5954198473282443,0.20610687022900764,-0.33587786259541985
1646443353638.7798,-0.1221923828125,-0.00811767578125,0.00885009765625,-0.6106870229007634,0.1984732824427481,-0.3435114503816794
1646443353639.339,-0.12164306640625,-0.0086669921875,0.0078125,-0.6183206106870229,0.19083969465648856,-0.35877862595419846
1646443353639.8982,-0.12164306640625,-0.0086669921875,0.0078125,-0.6183206106870229,0.19083969465648856,-0.35877862595419846
1646443353640.4568,-0.1212158203125,-0.0086669921875,0.00848388671875,-0.6259541984732825,0.19083969465648856,-0.37404580152671757
1646443353641.0183,-0.1212158203125,-0.0086669921875,0.00848388671875,-0.6259541984732825,0.19083969465648856,-0.37404580152671757
1646443353641.5781,-0.12115478515625,-0.00799560546875,0.00860595703125,-0.6106870229007634,0.183206106870229,-0.3511450381679389
1646443353642.2593,-0.12115478515625,-0.00799560546875,0.00860595703125,-0.6106870229007634,0.183206106870229,-0.3511450381679389
1646443353642.8232,-0.12066650390625,-0.0081787109375,0.0079345703125,-0.6183206106870229,0.20610687022900764,-0.3511450381679389
1646443353643.3833,-0.1207275390625,-0.00872802734375,0.008544921875,-0.6335877862595419,0.19083969465648856,-0.3435114503816794
1646443353643.9443,-0.1207275390625,-0.00872802734375,0.008544921875,-0.6335877862595419,0.19083969465648856,-0.3435114503816794
1646443353644.504,-0.12115478515625,-0.0084228515625,0.00823974609375,-0.6259541984732825,0.1984732824427481,-0.3435114503816794
1646443353645.064,-0.12115478515625,-0.0084228515625,0.00823974609375,-0.6259541984732825,0.1984732824427481,-0.3435114503816794
1646443353645.6226,-0.12139892578125,-0.00848388671875,0.00787353515625,-0.6259541984732825,0.20610687022900764,-0.3282442748091603
1646443353646.1838,-0.12139892578125,-0.00848388671875,0.00787353515625,-0.6259541984732825,0.20610687022900764,-0.3282442748091603
1646443353646.7437,-0.12103271484375,-0.00823974609375,0.00860595703125,-0.6183206106870229,0.20610687022900764,-0.3435114503816794
1646443353647.3044,-0.12103271484375,-0.00823974609375,0.00860595703125,-0.6183206106870229,0.20610687022900764,-0.3435114503816794
1646443353647.8635,-0.12109375,-0.00860595703125,0.00909423828125,-0.6183206106870229,0.20610687022900764,-0.3435114503816794
1646443353648.4226,-0.1212158203125,-0.0084228515625,0.00830078125,-0.6335877862595419,0.21374045801526717,-0.33587786259541985
1646443353648.9812,-0.1212158203125,-0.0084228515625,0.00830078125,-0.6335877862595419,0.21374045801526717,-0.33587786259541985
1646443353649.5396,-0.12188720703125,-0.00860595703125,0.0089111328125,-0.6106870229007634,0.22137404580152673,-0.3511450381679389
1646443353650.0994,-0.12188720703125,-0.00860595703125,0.0089111328125,-0.6106870229007634,0.22137404580152673,-0.3511450381679389
1646443353650.6587,-0.12158203125,-0.00860595703125,0.0087890625,-0.5877862595419847,0.22137404580152673,-0.3511450381679389
1646443353651.217,-0.12158203125,-0.00860595703125,0.0087890625,-0.5877862595419847,0.22137404580152673,-0.3511450381679389
1646443353651.8032,-0.1207275390625,-0.00830078125,0.00933837890625,-0.5954198473282443,0.22137404580152673,-0.3511450381679389
1646443353652.3633,-0.1217041015625,-0.008544921875,0.00933837890625,-0.6183206106870229,0.22900763358778625,-0.3511450381679389
1646443353652.922,-0.1217041015625,-0.008544921875,0.00933837890625,-0.6183206106870229,0.22900763358778625,-0.3511450381679389
1646443353653.4814,-0.1217041015625,-0.0079345703125,0.00897216796875,-0.6335877862595419,0.2366412213740458,-0.3511450381679389
1646443353654.0393,-0.1217041015625,-0.0079345703125,0.00897216796875,-0.6335877862595419,0.2366412213740458,-0.3511450381679389
1646443353654.599,-0.12152099609375,-0.0087890625,0.00909423828125,-0.6106870229007634,0.24427480916030533,-0.3511450381679389
1646443353655.1565,-0.12152099609375,-0.0087890625,0.00909423828125,-0.6106870229007634,0.24427480916030533,-0.3511450381679389
1646443353655.716,-0.1217041015625,-0.0086669921875,0.00872802734375,-0.5954198473282443,0.22900763358778625,-0.3511450381679389
1646443353656.2754,-0.1217041015625,-0.0086669921875,0.00872802734375,-0.5954198473282443,0.22900763358778625,-0.3511450381679389
1646443353656.8352,-0.121337890625,-0.009033203125,0.00823974609375,-0.5877862595419847,0.22900763358778625,-0.3511450381679389
1646443353657.394,-0.1209716796875,-0.00860595703125,0.0086669921875,-0.6030534351145038,0.2366412213740458,-0.3435114503816794
1646443353657.9524,-0.1209716796875,-0.00860595703125,0.0086669921875,-0.6030534351145038,0.2366412213740458,-0.3435114503816794
1646443353658.512,-0.12115478515625,-0.00811767578125,0.00885009765625,-0.6106870229007634,0.2366412213740458,-0.3435114503816794
1646443353659.0703,-0.12115478515625,-0.00811767578125,0.00885009765625,-0.6106870229007634,0.2366412213740458,-0.3435114503816794
1646443353659.6301,-0.12158203125,-0.00836181640625,0.0084228515625,-0.6183206106870229,0.22137404580152673,-0.3435114503816794
1646443353660.1882,-0.12158203125,-0.00836181640625,0.0084228515625,-0.6183206106870229,0.22137404580152673,-0.3435114503816794
1646443353660.7485,-0.12139892578125,-0.0086669921875,0.0089111328125,-0.6106870229007634,0.22137404580152673,-0.35877862595419846
1646443353661.3108,-0.12139892578125,-0.0086669921875,0.0089111328125,-0.6106870229007634,0.22137404580152673,-0.35877862595419846
1646443353661.871,-0.121337890625,-0.0086669921875,0.00933837890625,-0.6106870229007634,0.22137404580152673,-0.366412213740458
1646443353662.429,-0.12078857421875,-0.0084228515625,0.0087890625,-0.6030534351145038,0.21374045801526717,-0.35877862595419846
1646443353662.988,-0.12078857421875,-0.0084228515625,0.0087890625,-0.6030534351145038,0.21374045801526717,-0.35877862595419846
1646443353663.5464,-0.12103271484375,-0.009033203125,0.00885009765625,-0.5877862595419847,0.21374045801526717,-0.366412213740458
1646443353664.107,-0.12103271484375,-0.009033203125,0.00885009765625,-0.5877862595419847,0.21374045801526717,-0.366412213740458
1646443353664.6648,-0.12091064453125,-0.00909423828125,0.0086669921875,-0.5954198473282443,0.22137404580152673,-0.35877862595419846
1646443353665.2266,-0.12091064453125,-0.00909423828125,0.0086669921875,-0.5954198473282443,0.22137404580152673,-0.35877862595419846
1646443353665.787,-0.1209716796875,-0.00946044921875,0.00848388671875,-0.6106870229007634,0.22137404580152673,-0.35877862595419846
1646443353666.3464,-0.12152099609375,-0.009033203125,0.00848388671875,-0.6183206106870229,0.1984732824427481,-0.366412213740458
1646443353666.9043,-0.12152099609375,-0.009033203125,0.00848388671875,-0.6183206106870229,0.1984732824427481,-0.366412213740458
1646443353667.4626,-0.12115478515625,-0.0089111328125,0.00982666015625,-0.6183206106870229,0.183206106870229,-0.366412213740458
1646443353668.0217,-0.12115478515625,-0.0089111328125,0.00982666015625,-0.6183206106870229,0.183206106870229,-0.366412213740458
1646443353668.5796,-0.12078857421875,-0.0086669921875,0.00970458984375,-0.6106870229007634,0.19083969465648856,-0.3435114503816794
1646443353669.1406,-0.12078857421875,-0.0086669921875,0.00970458984375,-0.6106870229007634,0.19083969465648856,-0.3435114503816794
1646443353669.7004,-0.12054443359375,-0.00872802734375,0.0086669921875,-0.6259541984732825,0.20610687022900764,-0.3511450381679389
1646443353670.2605,-0.12054443359375,-0.00872802734375,0.0086669921875,-0.6259541984732825,0.20610687022900764,-0.3511450381679389
1646443353670.82,-0.12060546875,-0.00811767578125,0.0081787109375,-0.6259541984732825,0.22137404580152673,-0.35877862595419846
1646443353671.3801,-0.1214599609375,-0.00872802734375,0.0087890625,-0.6183206106870229,0.22900763358778625,-0.3511450381679389
1646443353671.9395,-0.1214599609375,-0.00872802734375,0.0087890625,-0.6183206106870229,0.22900763358778625,-0.3511450381679389
1646443353672.499,-0.12139892578125,-0.00885009765625,0.00848388671875,-0.6106870229007634,0.22900763358778625,-0.3435114503816794
1646443353673.0579,-0.12139892578125,-0.00885009765625,0.00848388671875,-0.6106870229007634,0.22900763358778625,-0.3435114503816794
1646443353673.6184,-0.12109375,-0.0087890625,0.00860595703125,-0.6183206106870229,0.22137404580152673,-0.35877862595419846
1646443353674.175,-0.12109375,-0.0087890625,0.00860595703125,-0.6183206106870229,0.22137404580152673,-0.35877862595419846
1646443353674.7314,-0.122314453125,-0.009033203125,0.0087890625,-0.6183206106870229,0.1984732824427481,-0.3511450381679389
1646443353675.2876,-0.122314453125,-0.009033203125,0.0087890625,-0.6183206106870229,0.1984732824427481,-0.3511450381679389
1646443353675.844,-0.1214599609375,-0.008544921875,0.00775146484375,-0.6106870229007634,0.1984732824427481,-0.35877862595419846
1646443353676.4016,-0.12152099609375,-0.008544921875,0.0081787109375,-0.6030534351145038,0.20610687022900764,-0.3511450381679389
1646443353676.9604,-0.12152099609375,-0.008544921875,0.0081787109375,-0.6030534351145038,0.20610687022900764,-0.3511450381679389
1646443353677.5198,-0.121826171875,-0.0086669921875,0.0091552734375,-0.6183206106870229,0.1984732824427481,-0.3511450381679389
1646443353678.1885,-0.121826171875,-0.0086669921875,0.0091552734375,-0.6183206106870229,0.1984732824427481,-0.3511450381679389
1646443353678.7524,-0.120849609375,-0.0089111328125,0.01019287109375,-0.6412213740458015,0.1984732824427481,-0.366412213740458
1646443353679.3125,-0.120849609375,-0.0089111328125,0.01019287109375,-0.6412213740458015,0.1984732824427481,-0.366412213740458
1646443353679.8723,-0.1217041015625,-0.00811767578125,0.00872802734375,-0.6183206106870229,0.20610687022900764,-0.366412213740458
1646443353680.4316,-0.12115478515625,-0.0079345703125,0.008056640625,-0.6030534351145038,0.1984732824427481,-0.37404580152671757
1646443353680.9915,-0.12115478515625,-0.0079345703125,0.008056640625,-0.6030534351145038,0.1984732824427481,-0.37404580152671757
1646443353681.5508,-0.12060546875,-0.00830078125,0.00860595703125,-0.6106870229007634,0.20610687022900764,-0.3816793893129771
1646443353682.1077,-0.12060546875,-0.00830078125,0.00860595703125,-0.6106870229007634,0.20610687022900764,-0.3816793893129771
1646443353682.6646,-0.1214599609375,-0.00885009765625,0.0087890625,-0.6030534351145038,0.20610687022900764,-0.3816793893129771
1646443353683.2224,-0.1214599609375,-0.00885009765625,0.0087890625,-0.6030534351145038,0.20610687022900764,-0.3816793893129771
1646443353683.7812,-0.12158203125,-0.009033203125,0.0089111328125,-0.6030534351145038,0.21374045801526717,-0.37404580152671757
1646443353684.3398,-0.1207275390625,-0.009033203125,0.00823974609375,-0.6183206106870229,0.22137404580152673,-0.35877862595419846
1646443353684.9004,-0.1207275390625,-0.009033203125,0.00823974609375,-0.6183206106870229,0.22137404580152673,-0.35877862595419846
1646443353685.4597,-0.12139892578125,-0.0084228515625,0.0089111328125,-0.6335877862595419,0.22900763358778625,-0.35877862595419846
1646443353686.021,-0.12139892578125,-0.0084228515625,0.0089111328125,-0.6335877862595419,0.22900763358778625,-0.35877862595419846
1646443353686.5803,-0.12066650390625,-0.0089111328125,0.00860595703125,-0.6183206106870229,0.24427480916030533,-0.35877862595419846
1646443353687.141,-0.12066650390625,-0.0089111328125,0.00860595703125,-0.6183206106870229,0.24427480916030533,-0.35877862595419846
1646443353687.7014,-0.1212158203125,-0.00933837890625,0.0087890625,-0.6106870229007634,0.24427480916030533,-0.3511450381679389
1646443353688.261,-0.1212158203125,-0.00933837890625,0.0087890625,-0.6106870229007634,0.24427480916030533,-0.3511450381679389
1646443353688.818,-0.12139892578125,-0.0084228515625,0.008544921875,-0.6183206106870229,0.24427480916030533,-0.35877862595419846
1646443353689.3784,-0.12139892578125,-0.00909423828125,0.0084228515625,-0.6259541984732825,0.2366412213740458,-0.366412213740458
1646443353689.937,-0.12139892578125,-0.00909423828125,0.0084228515625,-0.6259541984732825,0.2366412213740458,-0.366412213740458
1646443353690.4954,-0.1219482421875,-0.00897216796875,0.00823974609375,-0.6259541984732825,0.2366412213740458,-0.3893129770992366
1646443353691.054,-0.1219482421875,-0.00897216796875,0.00823974609375,-0.6259541984732825,0.2366412213740458,-0.3893129770992366
1646443353691.6118,-0.12176513671875,-0.00933837890625,0.0096435546875,-0.6106870229007634,0.25190839694656486,-0.3893129770992366
1646443353692.173,-0.12176513671875,-0.00933837890625,0.0096435546875,-0.6106870229007634,0.25190839694656486,-0.3893129770992366
1646443353692.7324,-0.12188720703125,-0.00830078125,0.00885009765625,-0.6106870229007634,0.25190839694656486,-0.37404580152671757
1646443353693.2927,-0.12188720703125,-0.00830078125,0.00885009765625,-0.6106870229007634,0.25190839694656486,-0.37404580152671757
1646443353693.851,-0.12164306640625,-0.00897216796875,0.00872802734375,-0.6106870229007634,0.2366412213740458,-0.3816793893129771
1646443353694.4102,-0.1212158203125,-0.00897216796875,0.00909423828125,-0.6183206106870229,0.2366412213740458,-0.3816793893129771
1646443353694.968,-0.1212158203125,-0.00897216796875,0.00909423828125,-0.6183206106870229,0.2366412213740458,-0.3816793893129771
1646443353695.5273,-0.12176513671875,-0.0086669921875,0.0084228515625,-0.6183206106870229,0.24427480916030533,-0.3816793893129771
1646443353696.087,-0.12176513671875,-0.0086669921875,0.0084228515625,-0.6183206106870229,0.24427480916030533,-0.3816793893129771
1646443353696.6477,-0.121826171875,-0.0087890625,0.008544921875,-0.6183206106870229,0.2366412213740458,-0.37404580152671757
1646443353697.2046,-0.121826171875,-0.0087890625,0.008544921875,-0.6183206106870229,0.2366412213740458,-0.37404580152671757
1646443353697.7634,-0.12066650390625,-0.00872802734375,0.00860595703125,-0.6183206106870229,0.22137404580152673,-0.37404580152671757
1646443353698.3232,-0.12103271484375,-0.00909423828125,0.00921630859375,-0.6106870229007634,0.22137404580152673,-0.35877862595419846
1646443353698.8828,-0.12103271484375,-0.00909423828125,0.00921630859375,-0.6106870229007634,0.22137404580152673,-0.35877862595419846
1646443353699.443,-0.12158203125,-0.00897216796875,0.00909423828125,-0.6106870229007634,0.22900763358778625,-0.35877862595419846
1646443353700.0017,-0.12158203125,-0.00897216796875,0.00909423828125,-0.6106870229007634,0.22900763358778625,-0.35877862595419846
1646443353700.562,-0.1214599609375,-0.0079345703125,0.009033203125,-0.6183206106870229,0.22900763358778625,-0.366412213740458
1646443353701.1196,-0.1214599609375,-0.0079345703125,0.009033203125,-0.6183206106870229,0.22900763358778625,-0.366412213740458
1646443353701.7046,-0.1214599609375,-0.008056640625,0.00823974609375,-0.6259541984732825,0.22137404580152673,-0.37404580152671757
1646443353702.2651,-0.1214599609375,-0.008056640625,0.00823974609375,-0.6259541984732825,0.22137404580152673,-0.37404580152671757
1646443353702.8262,-0.120849609375,-0.00830078125,0.00823974609375,-0.6030534351145038,0.20610687022900764,-0.37404580152671757
1646443353703.3845,-0.12103271484375,-0.00885009765625,0.00921630859375,-0.5877862595419847,0.21374045801526717,-0.37404580152671757
1646443353703.9465,-0.12103271484375,-0.00885009765625,0.00921630859375,-0.5877862595419847,0.21374045801526717,-0.37404580152671757
1646443353704.507,-0.1217041015625,-0.0087890625,0.00885009765625,-0.6106870229007634,0.21374045801526717,-0.37404580152671757
1646443353705.0662,-0.1217041015625,-0.0087890625,0.00885009765625,-0.6106870229007634,0.21374045801526717,-0.37404580152671757
1646443353705.6245,-0.1212158203125,-0.0084228515625,0.0087890625,-0.6183206106870229,0.20610687022900764,-0.366412213740458
1646443353706.1826,-0.1212158203125,-0.0084228515625,0.0087890625,-0.6183206106870229,0.20610687022900764,-0.366412213740458
1646443353706.7397,-0.12115478515625,-0.00836181640625,0.008544921875,-0.6106870229007634,0.21374045801526717,-0.35877862595419846
1646443353707.299,-0.12115478515625,-0.00836181640625,0.008544921875,-0.6106870229007634,0.21374045801526717,-0.35877862595419846
1646443353707.86,-0.12213134765625,-0.00848388671875,0.009033203125,-0.6106870229007634,0.22900763358778625,-0.35877862595419846
1646443353708.4187,-0.12200927734375,-0.0087890625,0.00830078125,-0.6183206106870229,0.22137404580152673,-0.366412213740458
1646443353708.977,-0.12200927734375,-0.0087890625,0.00830078125,-0.6183206106870229,0.22137404580152673,-0.366412213740458
1646443353709.5334,-0.12109375,-0.0084228515625,0.009033203125,-0.6335877862595419,0.1984732824427481,-0.37404580152671757
1646443353710.0913,-0.12109375,-0.0084228515625,0.009033203125,-0.6335877862595419,0.1984732824427481,-0.37404580152671757
1646443353710.6482,-0.12115478515625,-0.00860595703125,0.00830078125,-0.6412213740458015,0.17557251908396945,-0.3816793893129771
1646443353711.208,-0.12115478515625,-0.00860595703125,0.00830078125,-0.6412213740458015,0.17557251908396945,-0.3816793893129771
1646443353711.7927,-0.12109375,-0.0091552734375,0.00848388671875,-0.6259541984732825,0.17557251908396945,-0.37404580152671757
1646443353712.353,-0.1220703125,-0.0087890625,0.00994873046875,-0.6106870229007634,0.1984732824427481,-0.37404580152671757
1646443353712.911,-0.1220703125,-0.0087890625,0.00994873046875,-0.6106870229007634,0.1984732824427481,-0.37404580152671757
1646443353713.4688,-0.120849609375,-0.00872802734375,0.0093994140625,-0.6030534351145038,0.19083969465648856,-0.3511450381679389
1646443353714.1482,-0.120849609375,-0.00872802734375,0.0093994140625,-0.6030534351145038,0.19083969465648856,-0.3511450381679389
1646443353714.7117,-0.1214599609375,-0.0087890625,0.00872802734375,-0.6030534351145038,0.19083969465648856,-0.3435114503816794
1646443353715.2712,-0.1214599609375,-0.0087890625,0.00872802734375,-0.6030534351145038,0.19083969465648856,-0.3435114503816794
1646443353715.8298,-0.12164306640625,-0.00933837890625,0.0072021484375,-0.6183206106870229,0.183206106870229,-0.35877862595419846
1646443353716.39,-0.121337890625,-0.00897216796875,0.00848388671875,-0.6183206106870229,0.15267175572519084,-0.37404580152671757
1646443353716.9487,-0.121337890625,-0.00897216796875,0.00848388671875,-0.6183206106870229,0.15267175572519084,-0.37404580152671757
1646443353717.5098,-0.12127685546875,-0.0086669921875,0.00933837890625,-0.6259541984732825,0.16793893129770993,-0.35877862595419846
1646443353718.0698,-0.12127685546875,-0.0086669921875,0.00933837890625,-0.6259541984732825,0.16793893129770993,-0.35877862595419846
1646443353718.6316,-0.121826171875,-0.00848388671875,0.00830078125,-0.6106870229007634,0.19083969465648856,-0.35877862595419846
1646443353719.1907,-0.121826171875,-0.00848388671875,0.00830078125,-0.6106870229007634,0.19083969465648856,-0.35877862595419846
1646443353719.751,-0.120849609375,-0.0089111328125,0.00897216796875,-0.6030534351145038,0.19083969465648856,-0.3816793893129771
1646443353720.3086,-0.120849609375,-0.0089111328125,0.00897216796875,-0.6030534351145038,0.19083969465648856,-0.3816793893129771
1646443353720.8674,-0.1202392578125,-0.0089111328125,0.0086669921875,-0.6030534351145038,0.19083969465648856,-0.3816793893129771
1646443353721.4268,-0.1199951171875,-0.0089111328125,0.009033203125,-0.6030534351145038,0.183206106870229,-0.3511450381679389
1646443353721.9836,-0.1199951171875,-0.0089111328125,0.009033203125,-0.6030534351145038,0.183206106870229,-0.3511450381679389
1646443353722.5405,-0.120361328125,-0.00830078125,0.00848388671875,-0.5877862595419847,0.19083969465648856,-0.3435114503816794
1646443353723.0984,-0.120361328125,-0.00830078125,0.00848388671875,-0.5877862595419847,0.19083969465648856,-0.3435114503816794
1646443353723.658,-0.12030029296875,-0.0089111328125,0.0086669921875,-0.5648854961832062,0.21374045801526717,-0.32061068702290074
1646443353724.2166,-0.12030029296875,-0.0089111328125,0.0086669921875,-0.5648854961832062,0.21374045801526717,-0.32061068702290074
1646443353724.777,-0.11883544921875,-0.00909423828125,0.009033203125,-0.5343511450381679,0.21374045801526717,-0.3053435114503817
1646443353725.3367,-0.1181640625,-0.0096435546875,0.0098876953125,-0.5038167938931297,0.2366412213740458,-0.2900763358778626
1646443353725.894,-0.1181640625,-0.0096435546875,0.0098876953125,-0.5038167938931297,0.2366412213740458,-0.2900763358778626
1646443353726.4504,-0.11859130859375,-0.0108642578125,0.010498046875,-0.4580152671755725,0.25190839694656486,-0.2748091603053435
1646443353727.0098,-0.11859130859375,-0.0108642578125,0.010498046875,-0.4580152671755725,0.25190839694656486,-0.2748091603053435
1646443353727.568,-0.119140625,-0.009765625,0.0096435546875,-0.44274809160305345,0.2900763358778626,-0.25190839694656486
1646443353728.1257,-0.119140625,-0.009765625,0.0096435546875,-0.44274809160305345,0.2900763358778626,-0.25190839694656486
1646443353728.6821,-0.11968994140625,-0.00885009765625,0.00799560546875,-0.4351145038167939,0.33587786259541985,-0.20610687022900764
1646443353729.2424,-0.11968994140625,-0.00885009765625,0.00799560546875,-0.4351145038167939,0.33587786259541985,-0.20610687022900764
1646443353729.802,-0.12042236328125,-0.00885009765625,0.00537109375,-0.42748091603053434,0.4122137404580153,-0.183206106870229
1646443353730.3594,-0.12091064453125,-0.0081787109375,0.0035400390625,-0.40458015267175573,0.40458015267175573,-0.183206106870229
1646443353730.9185,-0.12091064453125,-0.0081787109375,0.0035400390625,-0.40458015267175573,0.40458015267175573,-0.183206106870229
1646443353731.477,-0.1229248046875,-0.00848388671875,0.00634765625,-0.4351145038167939,0.2748091603053435,-0.20610687022900764
1646443353732.0361,-0.1229248046875,-0.00848388671875,0.00634765625,-0.4351145038167939,0.2748091603053435,-0.20610687022900764
1646443353732.5952,-0.125,-0.00860595703125,0.00823974609375,-0.5190839694656488,0.1297709923664122,-0.22900763358778625
1646443353733.153,-0.125,-0.00860595703125,0.00823974609375,-0.5190839694656488,0.1297709923664122,-0.22900763358778625
1646443353733.709,-0.12408447265625,-0.00836181640625,0.00872802734375,-0.5572519083969466,0.07633587786259542,-0.25190839694656486
1646443353734.2698,-0.12408447265625,-0.00836181640625,0.00872802734375,-0.5572519083969466,0.07633587786259542,-0.25190839694656486
1646443353734.8308,-0.1224365234375,-0.00762939453125,0.00799560546875,-0.5572519083969466,0.06870229007633588,-0.2824427480916031
1646443353735.3906,-0.121337890625,-0.0076904296875,0.00653076171875,-0.549618320610687,0.03816793893129771,-0.2824427480916031
