timestamp,acc_x,acc_y,acc_z,gyr_x,gyr_y,gyr_z
1646443391763.7014,-0.00128173828125,0.12054443359375,0.0211181640625,-0.5954198473282443,0.16793893129770993,-0.366412213740458
1646443391764.4683,-0.00128173828125,0.12054443359375,0.0211181640625,-0.5954198473282443,0.16793893129770993,-0.366412213740458
1646443391765.0393,-0.0015869140625,0.12115478515625,0.02215576171875,-0.6106870229007634,0.183206106870229,-0.366412213740458
1646443391765.5984,-0.00079345703125,0.12139892578125,0.02093505859375,-0.6106870229007634,0.17557251908396945,-0.37404580152671757
1646443391766.1575,-0.00079345703125,0.12139892578125,0.02093505859375,-0.6106870229007634,0.17557251908396945,-0.37404580152671757
1646443391766.718,-0.0009765625,0.12109375,0.02191162109375,-0.6106870229007634,0.16793893129770993,-0.37404580152671757
1646443391767.2734,-0.0009765625,0.12109375,0.02191162109375,-0.6106870229007634,0.16793893129770993,-0.37404580152671757
1646443391767.8306,-0.0015869140625,0.12127685546875,0.02154541015625,-0.6183206106870229,0.16793893129770993,-0.37404580152671757
1646443391768.3892,-0.0015869140625,0.12127685546875,0.02154541015625,-0.6183206106870229,0.16793893129770993,-0.37404580152671757
1646443391768.9468,-0.0010986328125,0.12054443359375,0.0206298828125,-0.6183206106870229,0.16030534351145037,-0.35877862595419846
1646443391769.5046,-0.00103759765625,0.120361328125,0.02069091796875,-0.6106870229007634,0.16030534351145037,-0.3435114503816794
1646443391770.0608,-0.00103759765625,0.120361328125,0.02069091796875,-0.6106870229007634,0.16030534351145037,-0.3435114503816794
1646443391770.6187,-0.00128173828125,0.11981201171875,0.02154541015625,-0.6030534351145038,0.16030534351145037,-0.35877862595419846
1646443391771.176,-0.00128173828125,0.11981201171875,0.02154541015625,-0.6030534351145038,0.16030534351145037,-0.35877862595419846
1646443391771.7834,-0.00201416015625,0.1202392578125,0.02197265625,-0.6106870229007634,0.17557251908396945,-0.37404580152671757
1646443391772.34,-0.00201416015625,0.1202392578125,0.02197265625,-0.6106870229007634,0.17557251908396945,-0.37404580152671757
1646443391772.8967,-0.0015869140625,0.11993408203125,0.02130126953125,-0.6106870229007634,0.17557251908396945,-0.37404580152671757
1646443391773.4536,-0.0015869140625,0.11993408203125,0.02130126953125,-0.6106870229007634,0.17557251908396945,-0.37404580152671757
1646443391774.0125,-0.00140380859375,0.1219482421875,0.0211181640625,-0.6106870229007634,0.17557251908396945,-0.37404580152671757
1646443391774.5696,-0.00164794921875,0.12176513671875,0.02197265625,-0.6106870229007634,0.16030534351145037,-0.366412213740458
1646443391775.1262,-0.00164794921875,0.12176513671875,0.02197265625,-0.6106870229007634,0.16030534351145037,-0.366412213740458
1646443391775.6816,-0.00177001953125,0.12127685546875,0.02130126953125,-0.5954198473282443,0.16793893129770993,-0.366412213740458
1646443391776.24,-0.00177001953125,0.12127685546875,0.02130126953125,-0.5954198473282443,0.16793893129770993,-0.366412213740458
1646443391776.796,-0.001220703125,0.121826171875,0.0218505859375,-0.6106870229007634,0.16030534351145037,-0.37404580152671757
1646443391777.3516,-0.001220703125,0.121826171875,0.0218505859375,-0.6106870229007634,0.16030534351145037,-0.37404580152671757
1646443391777.9077,-0.0015869140625,0.12237548828125,0.02154541015625,-0.6259541984732825,0.1450381679389313,-0.3816793893129771
1646443391778.4636,-0.0015869140625,0.12237548828125,0.02154541015625,-0.6259541984732825,0.1450381679389313,-0.3816793893129771
1646443391779.0208,-0.0015869140625,0.121337890625,0.0218505859375,-0.6259541984732825,0.1297709923664122,-0.37404580152671757
1646443391779.5762,-0.0018310546875,0.1224365234375,0.02227783203125,-0.6259541984732825,0.16793893129770993,-0.37404580152671757
1646443391780.134,-0.0018310546875,0.1224365234375,0.02227783203125,-0.6259541984732825,0.16793893129770993,-0.37404580152671757
1646443391780.6904,-0.001708984375,0.1221923828125,0.0213623046875,-0.6030534351145038,0.19083969465648856,-0.3511450381679389
1646443391781.2913,-0.001708984375,0.1221923828125,0.0213623046875,-0.6030534351145038,0.19083969465648856,-0.3511450381679389
1646443391781.8535,-0.00164794921875,0.1217041015625,0.02069091796875,-0.5877862595419847,0.17557251908396945,-0.3435114503816794
1646443391782.4153,-0.00164794921875,0.1217041015625,0.02069091796875,-0.5877862595419847,0.17557251908396945,-0.3435114503816794
1646443391782.9766,-0.00201416015625,0.12152099609375,0.02197265625,-0.6183206106870229,0.16793893129770993,-0.366412213740458
1646443391783.536,-0.001953125,0.12139892578125,0.02142333984375,-0.6564885496183206,0.16793893129770993,-0.3816793893129771
1646443391784.0952,-0.001953125,0.12139892578125,0.02142333984375,-0.6564885496183206,0.16793893129770993,-0.3816793893129771
1646443391784.6545,-0.00140380859375,0.12066650390625,0.02197265625,-0.648854961832061,0.16030534351145037,-0.40458015267175573
1646443391785.2146,-0.00140380859375,0.12066650390625,0.02197265625,-0.648854961832061,0.16030534351145037,-0.40458015267175573
1646443391785.7737,-0.0015869140625,0.12078857421875,0.02197265625,-0.6183206106870229,0.15267175572519084,-0.37404580152671757
1646443391786.3362,-0.0015869140625,0.12078857421875,0.02197265625,-0.6183206106870229,0.15267175572519084,-0.37404580152671757
1646443391786.8955,-0.00201416015625,0.120361328125,0.02044677734375,-0.6183206106870229,0.17557251908396945,-0.366412213740458
1646443391787.4556,-0.00201416015625,0.120361328125,0.02044677734375,-0.6183206106870229,0.17557251908396945,-0.366412213740458
1646443391788.0142,-0.0018310546875,0.12127685546875,0.02093505859375,-0.6259541984732825,0.19083969465648856,-0.3816793893129771
1646443391788.5754,-0.00189208984375,0.12066650390625,0.02130126953125,-0.6412213740458015,0.16030534351145037,-0.3969465648854962
1646443391789.1365,-0.00189208984375,0.12066650390625,0.02130126953125,-0.6412213740458015,0.16030534351145037,-0.3969465648854962
1646443391789.7156,-0.0013427734375,0.12127685546875,0.02154541015625,-0.6412213740458015,0.15267175572519084,-0.366412213740458
1646443391790.2754,-0.0013427734375,0.12127685546875,0.02154541015625,-0.6412213740458015,0.15267175572519084,-0.366412213740458
1646443391790.837,-0.0015869140625,0.12127685546875,0.02130126953125,-0.6183206106870229,0.16030534351145037,-0.37404580152671757
1646443391791.3977,-0.0015869140625,0.12127685546875,0.02130126953125,-0.6183206106870229,0.16030534351145037,-0.37404580152671757
1646443391791.9597,-0.001220703125,0.1219482421875,0.0224609375,-0.6335877862595419,0.16793893129770993,-0.35877862595419846
1646443391792.5183,-0.0013427734375,0.1212158203125,0.021484375,-0.6335877862595419,0.17557251908396945,-0.3511450381679389
1646443391793.0854,-0.0013427734375,0.1212158203125,0.021484375,-0.6335877862595419,0.17557251908396945,-0.3511450381679389
1646443391793.6433,-0.0015869140625,0.12188720703125,0.02069091796875,-0.6183206106870229,0.19083969465648856,-0.366412213740458
1646443391794.2034,-0.0015869140625,0.12188720703125,0.02069091796875,-0.6183206106870229,0.19083969465648856,-0.366412213740458
1646443391794.7642,-0.00201416015625,0.1217041015625,0.02203369140625,-0.6030534351145038,0.17557251908396945,-0.3816793893129771
1646443391795.323,-0.00201416015625,0.1217041015625,0.02203369140625,-0.6030534351145038,0.17557251908396945,-0.3816793893129771
1646443391795.8828,-0.00225830078125,0.12127685546875,0.0218505859375,-0.6106870229007634,0.16793893129770993,-0.3816793893129771
1646443391796.4424,-0.00225830078125,0.12127685546875,0.0218505859375,-0.6106870229007634,0.16793893129770993,-0.3816793893129771
1646443391797.0024,-0.0023193359375,0.121337890625,0.021240234375,-0.6641221374045801,0.183206106870229,-0.366412213740458
1646443391797.559,-0.0015869140625,0.12103271484375,0.0218505859375,-0.6641221374045801,0.183206106870229,-0.35877862595419846
1646443391798.1199,-0.0015869140625,0.12103271484375,0.0218505859375,-0.6641221374045801,0.183206106870229,-0.35877862595419846
1646443391798.6792,-0.001708984375,0.12188720703125,0.0223388671875,-0.6412213740458015,0.16030534351145037,-0.366412213740458
1646443391799.4583,-0.001708984375,0.12188720703125,0.0223388671875,-0.6412213740458015,0.16030534351145037,-0.366412213740458
1646443391800.0247,-0.00238037109375,0.1207275390625,0.022705078125,-0.6412213740458015,0.1450381679389313,-0.3816793893129771
1646443391800.5854,-0.00177001953125,0.12078857421875,0.02215576171875,-0.648854961832061,0.1450381679389313,-0.37404580152671757
1646443391801.148,-0.00177001953125,0.12078857421875,0.02215576171875,-0.648854961832061,0.1450381679389313,-0.37404580152671757
1646443391801.7322,-0.0015869140625,0.12109375,0.021240234375,-0.6412213740458015,0.16030534351145037,-0.3816793893129771
1646443391802.292,-0.0015869140625,0.12109375,0.021240234375,-0.6412213740458015,0.16030534351145037,-0.3816793893129771
1646443391802.8494,-0.00128173828125,0.12139892578125,0.02117919921875,-0.648854961832061,0.17557251908396945,-0.3893129770992366
1646443391803.4106,-0.00128173828125,0.12139892578125,0.02117919921875,-0.648854961832061,0.17557251908396945,-0.3893129770992366
1646443391803.9712,-0.0015869140625,0.1204833984375,0.0224609375,-0.6641221374045801,0.19083969465648856,-0.366412213740458
1646443391804.5317,-0.00091552734375,0.12127685546875,0.0213623046875,-0.6564885496183206,0.17557251908396945,-0.37404580152671757
1646443391805.0925,-0.00091552734375,0.12127685546875,0.0213623046875,-0.6564885496183206,0.17557251908396945,-0.37404580152671757
1646443391805.6543,-0.00103759765625,0.1212158203125,0.0218505859375,-0.6412213740458015,0.16793893129770993,-0.37404580152671757
1646443391806.2146,-0.00103759765625,0.1212158203125,0.0218505859375,-0.6412213740458015,0.16793893129770993,-0.37404580152671757
1646443391806.7744,-0.001220703125,0.12158203125,0.02142333984375,-0.648854961832061,0.16793893129770993,-0.35877862595419846
1646443391807.335,-0.001220703125,0.12158203125,0.02142333984375,-0.648854961832061,0.16793893129770993,-0.35877862595419846
1646443391807.894,-0.0009765625,0.12127685546875,0.020751953125,-0.6564885496183206,0.17557251908396945,-0.366412213740458
1646443391808.4531,-0.0009765625,0.12127685546875,0.020751953125,-0.6564885496183206,0.17557251908396945,-0.366412213740458
1646443391809.0122,-0.00146484375,0.1214599609375,0.02044677734375,-0.648854961832061,0.19083969465648856,-0.366412213740458
1646443391809.572,-0.00146484375,0.1204833984375,0.02105712890625,-0.6335877862595419,0.19083969465648856,-0.366412213740458
1646443391810.1306,-0.00146484375,0.1204833984375,0.02105712890625,-0.6335877862595419,0.19083969465648856,-0.366412213740458
1646443391810.6904,-0.0010986328125,0.1214599609375,0.02215576171875,-0.6259541984732825,0.183206106870229,-0.35877862595419846
1646443391811.269,-0.0010986328125,0.1214599609375,0.02215576171875,-0.6259541984732825,0.183206106870229,-0.35877862595419846
1646443391811.83,-0.00146484375,0.12091064453125,0.0211181640625,-0.6259541984732825,0.16793893129770993,-0.3511450381679389
1646443391812.3882,-0.00146484375,0.12091064453125,0.0211181640625,-0.6259541984732825,0.16793893129770993,-0.3511450381679389
1646443391812.9475,-0.0015869140625,0.1214599609375,0.02001953125,-0.648854961832061,0.1450381679389313,-0.35877862595419846
1646443391813.5066,-0.00213623046875,0.12078857421875,0.021240234375,-0.648854961832061,0.13740458015267176,-0.35877862595419846
1646443391814.066,-0.00213623046875,0.12078857421875,0.021240234375,-0.648854961832061,0.13740458015267176,-0.35877862595419846
1646443391814.6248,-0.00189208984375,0.1217041015625,0.02264404296875,-0.6335877862595419,0.15267175572519084,-0.35877862595419846
1646443391815.185,-0.00189208984375,0.1217041015625,0.02264404296875,-0.6335877862595419,0.15267175572519084,-0.35877862595419846
1646443391815.7473,-0.000244140625,0.120849609375,0.0225830078125,-0.6259541984732825,0.183206106870229,-0.366412213740458
1646443391816.3064,-0.000244140625,0.120849609375,0.0225830078125,-0.6259541984732825,0.183206106870229,-0.366412213740458
1646443391816.867,0.00164794921875,0.120361328125,0.0211181640625,-0.6106870229007634,0.22137404580152673,-0.35877862595419846
1646443391817.4253,0.00164794921875,0.120361328125,0.0211181640625,-0.6106870229007634,0.22137404580152673,-0.35877862595419846
1646443391817.986,0.002685546875,0.119140625,0.02105712890625,-0.6030534351145038,0.22137404580152673,-0.3816793893129771
1646443391818.5417,0.00323486328125,0.11883544921875,0.02020263671875,-0.6106870229007634,0.2366412213740458,-0.42748091603053434
1646443391819.102,0.00323486328125,0.11883544921875,0.02020263671875,-0.6106870229007634,0.2366412213740458,-0.42748091603053434
1646443391819.6614,0.00360107421875,0.11798095703125,0.02032470703125,-0.6106870229007634,0.2595419847328244,-0.4732824427480916
1646443391820.2207,0.00360107421875,0.11798095703125,0.02032470703125,-0.6106870229007634,0.2595419847328244,-0.4732824427480916
1646443391820.779,0.003662109375,0.11859130859375,0.0206298828125,-0.648854961832061,0.25190839694656486,-0.4961832061068702
1646443391821.3364,0.003662109375,0.11859130859375,0.0206298828125,-0.648854961832061,0.25190839694656486,-0.4961832061068702
1646443391821.8943,0.0037841796875,0.11724853515625,0.0191650390625,-0.6335877862595419,0.2366412213740458,-0.5190839694656488
1646443391822.4531,0.0037841796875,0.11724853515625,0.0191650390625,-0.6335877862595419,0.2366412213740458,-0.5190839694656488
1646443391823.011,0.00506591796875,0.11785888671875,0.01995849609375,-0.6183206106870229,0.24427480916030533,-0.5343511450381679
1646443391823.5688,0.00494384765625,0.1181640625,0.0208740234375,-0.6106870229007634,0.19083969465648856,-0.5648854961832062
1646443391824.127,0.00494384765625,0.1181640625,0.0208740234375,-0.6106870229007634,0.19083969465648856,-0.5648854961832062
1646443391824.6833,0.0050048828125,0.11834716796875,0.01910400390625,-0.6412213740458015,0.183206106870229,-0.6106870229007634
1646443391825.242,0.0050048828125,0.11834716796875,0.01910400390625,-0.6412213740458015,0.183206106870229,-0.6106870229007634
1646443391825.7988,0.0059814453125,0.11810302734375,0.01959228515625,-0.648854961832061,0.19083969465648856,-0.6641221374045801
1646443391826.358,0.0059814453125,0.11810302734375,0.01959228515625,-0.648854961832061,0.19083969465648856,-0.6641221374045801
1646443391826.9155,0.00640869140625,0.11883544921875,0.0198974609375,-0.6564885496183206,0.17557251908396945,-0.6946564885496184
1646443391827.4758,0.0069580078125,0.11968994140625,0.02001953125,-0.6717557251908397,0.17557251908396945,-0.732824427480916
1646443391828.0327,0.0069580078125,0.11968994140625,0.02001953125,-0.6717557251908397,0.17557251908396945,-0.732824427480916
1646443391828.5903,0.00738525390625,0.1201171875,0.0194091796875,-0.6870229007633588,0.19083969465648856,-0.7709923664122137
1646443391829.148,0.00738525390625,0.1201171875,0.0194091796875,-0.6870229007633588,0.19083969465648856,-0.7709923664122137
1646443391829.7056,0.00640869140625,0.120361328125,0.02069091796875,-0.6946564885496184,0.1450381679389313,-0.8244274809160306
1646443391830.263,0.00640869140625,0.120361328125,0.02069091796875,-0.6946564885496184,0.1450381679389313,-0.8244274809160306
1646443391830.82,0.00579833984375,0.12078857421875,0.02203369140625,-0.7099236641221374,0.12213740458015267,-0.8702290076335878
1646443391831.3782,0.00579833984375,0.12078857421875,0.02203369140625,-0.7099236641221374,0.12213740458015267,-0.8702290076335878
1646443391831.937,0.00469970703125,0.12139892578125,0.0213623046875,-0.7099236641221374,0.10687022900763359,-0.9007633587786259
1646443391832.4966,0.00396728515625,0.12286376953125,0.021728515625,-0.7022900763358778,0.0916030534351145,-0.9236641221374046
1646443391833.0535,0.00396728515625,0.12286376953125,0.021728515625,-0.7022900763358778,0.0916030534351145,-0.9236641221374046
1646443391833.6116,0.00445556640625,0.12237548828125,0.022216796875,-0.7022900763358778,0.07633587786259542,-0.9541984732824428
1646443391834.17,0.00445556640625,0.12237548828125,0.022216796875,-0.7022900763358778,0.07633587786259542,-0.9541984732824428
1646443391834.7283,0.00518798828125,0.12225341796875,0.02294921875,-0.7022900763358778,0.08396946564885496,-1.0
1646443391835.281,0.00518798828125,0.12225341796875,0.02294921875,-0.7022900763358778,0.08396946564885496,-1.0
1646443391835.9636,0.00543212890625,0.12158203125,0.02410888671875,-0.6946564885496184,0.11450381679389313,-1.0458015267175573
1646443391836.5269,0.00640869140625,0.1221923828125,0.02398681640625,-0.6870229007633588,0.15267175572519084,-1.0687022900763359
1646443391837.0862,0.00640869140625,0.1221923828125,0.02398681640625,-0.6870229007633588,0.15267175572519084,-1.0687022900763359
1646443391837.6458,0.00567626953125,0.12255859375,0.02239990234375,-0.6870229007633588,0.17557251908396945,-1.1068702290076335
1646443391838.204,0.00567626953125,0.12255859375,0.02239990234375,-0.6870229007633588,0.17557251908396945,-1.1068702290076335
1646443391838.7632,0.00579833984375,0.1220703125,0.0228271484375,-0.7022900763358778,0.183206106870229,-1.1374045801526718
1646443391839.3198,0.00579833984375,0.1220703125,0.0228271484375,-0.7022900763358778,0.183206106870229,-1.1374045801526718
1646443391839.8777,0.004638671875,0.1214599609375,0.02239990234375,-0.6946564885496184,0.20610687022900764,-1.1755725190839694
1646443391840.4358,0.004638671875,0.1214599609375,0.02239990234375,-0.6946564885496184,0.20610687022900764,-1.1755725190839694
1646443391840.9949,0.002685546875,0.12188720703125,0.02301025390625,-0.6946564885496184,0.24427480916030533,-1.2061068702290076
1646443391841.5535,0.0008544921875,0.12200927734375,0.0228271484375,-0.6870229007633588,0.26717557251908397,-1.213740458015267
1646443391842.1128,0.0008544921875,0.12200927734375,0.0228271484375,-0.6870229007633588,0.26717557251908397,-1.213740458015267
1646443391842.6716,0.0010986328125,0.12152099609375,0.02191162109375,-0.6641221374045801,0.3053435114503817,-1.2213740458015268
1646443391843.2312,0.0010986328125,0.12152099609375,0.02191162109375,-0.6641221374045801,0.3053435114503817,-1.2213740458015268
1646443391843.7903,0.00091552734375,0.1212158203125,0.0228271484375,-0.6564885496183206,0.3435114503816794,-1.2213740458015268
1646443391844.3508,0.00091552734375,0.1212158203125,0.0228271484375,-0.6564885496183206,0.3435114503816794,-1.2213740458015268
1646443391844.9102,0.00250244140625,0.12103271484375,0.02215576171875,-0.648854961832061,0.3511450381679389,-1.2290076335877862
1646443391845.4688,0.00250244140625,0.12103271484375,0.02215576171875,-0.648854961832061,0.3511450381679389,-1.2290076335877862
1646443391846.0269,0.0028076171875,0.12017822265625,0.02130126953125,-0.648854961832061,0.3511450381679389,-1.2671755725190839
1646443391846.5845,0.00164794921875,0.12091064453125,0.02008056640625,-0.6564885496183206,0.3435114503816794,-1.297709923664122
1646443391847.1436,0.00164794921875,0.12091064453125,0.02008056640625,-0.6564885496183206,0.3435114503816794,-1.297709923664122
1646443391847.7021,0.001953125,0.12060546875,0.02056884765625,-0.6564885496183206,0.366412213740458,-1.3053435114503817
1646443391848.2615,0.001953125,0.12060546875,0.02056884765625,-0.6564885496183206,0.366412213740458,-1.3053435114503817
1646443391848.819,0.0010986328125,0.1204833984375,0.0211181640625,-0.6641221374045801,0.3435114503816794,-1.3129770992366412
1646443391849.3784,0.0010986328125,0.1204833984375,0.0211181640625,-0.6641221374045801,0.3435114503816794,-1.3129770992366412
1646443391849.938,0.00054931640625,0.12054443359375,0.0211181640625,-0.648854961832061,0.33587786259541985,-1.3282442748091603
1646443391850.498,-0.00079345703125,0.1214599609375,0.0205078125,-0.648854961832061,0.3511450381679389,-1.3358778625954197
1646443391851.056,-0.00079345703125,0.1214599609375,0.0205078125,-0.648854961832061,0.3511450381679389,-1.3358778625954197
1646443391851.6152,-0.002197265625,0.121826171875,0.021240234375,-0.648854961832061,0.35877862595419846,-1.3435114503816794
1646443391852.1729,-0.002197265625,0.121826171875,0.021240234375,-0.648854961832061,0.35877862595419846,-1.3435114503816794
1646443391852.7312,-0.0010986328125,0.120849609375,0.02056884765625,-0.6412213740458015,0.366412213740458,-1.3358778625954197
1646443391853.29,-0.0010986328125,0.120849609375,0.02056884765625,-0.6412213740458015,0.366412213740458,-1.3358778625954197
1646443391853.8489,0.00067138671875,0.1201171875,0.0206298828125,-0.6183206106870229,0.4122137404580153,-1.3511450381679388
1646443391854.4065,0.00067138671875,0.1201171875,0.0206298828125,-0.6183206106870229,0.4122137404580153,-1.3511450381679388
1646443391854.9648,-0.00042724609375,0.12158203125,0.021240234375,-0.5954198473282443,0.3969465648854962,-1.366412213740458
1646443391855.5237,-0.001953125,0.121337890625,0.021240234375,-0.6335877862595419,0.35877862595419846,-1.366412213740458
1646443391856.082,-0.001953125,0.121337890625,0.021240234375,-0.6335877862595419,0.35877862595419846,-1.366412213740458
1646443391856.6404,-0.00421142578125,0.12164306640625,0.0198974609375,-0.6641221374045801,0.31297709923664124,-1.3435114503816794
1646443391857.201,-0.00421142578125,0.12164306640625,0.0198974609375,-0.6641221374045801,0.31297709923664124,-1.3435114503816794
1646443391857.7617,-0.00640869140625,0.120849609375,0.020751953125,-0.6793893129770993,0.32061068702290074,-1.3129770992366412
1646443391858.3206,-0.00640869140625,0.120849609375,0.020751953125,-0.6793893129770993,0.32061068702290074,-1.3129770992366412
1646443391858.8809,-0.005615234375,0.11932373046875,0.02093505859375,-0.6717557251908397,0.3511450381679389,-1.297709923664122
1646443391859.4395,-0.005615234375,0.11932373046875,0.02093505859375,-0.6717557251908397,0.3511450381679389,-1.297709923664122
1646443391859.9995,-0.004150390625,0.12054443359375,0.02288818359375,-0.6564885496183206,0.3435114503816794,-1.282442748091603
1646443391860.5583,-0.0048828125,0.1224365234375,0.02276611328125,-0.6793893129770993,0.3053435114503817,-1.2671755725190839
1646443391861.1174,-0.0048828125,0.1224365234375,0.02276611328125,-0.6793893129770993,0.3053435114503817,-1.2671755725190839
1646443391861.7058,-0.00604248046875,0.12310791015625,0.0203857421875,-0.6946564885496184,0.2900763358778626,-1.251908396946565
1646443391862.2654,-0.00604248046875,0.12310791015625,0.0203857421875,-0.6946564885496184,0.2900763358778626,-1.251908396946565
1646443391862.8232,-0.00653076171875,0.122802734375,0.02032470703125,-0.7022900763358778,0.2824427480916031,-1.2366412213740459
1646443391863.382,-0.00653076171875,0.122802734375,0.02032470703125,-0.7022900763358778,0.2824427480916031,-1.2366412213740459
1646443391863.942,-0.0074462890625,0.12200927734375,0.02191162109375,-0.6870229007633588,0.2748091603053435,-1.1984732824427482
1646443391864.5005,-0.00640869140625,0.12237548828125,0.022216796875,-0.6717557251908397,0.2900763358778626,-1.16793893129771
1646443391865.06,-0.00640869140625,0.12237548828125,0.022216796875,-0.6717557251908397,0.2900763358778626,-1.16793893129771
1646443391865.618,-0.004638671875,0.12322998046875,0.0225830078125,-0.6717557251908397,0.32061068702290074,-1.16793893129771
1646443391866.1758,-0.004638671875,0.12322998046875,0.0225830078125,-0.6717557251908397,0.32061068702290074,-1.16793893129771
1646443391866.7336,-0.00482177734375,0.12310791015625,0.021728515625,-0.6793893129770993,0.3282442748091603,-1.1603053435114503
1646443391867.293,-0.00482177734375,0.12310791015625,0.021728515625,-0.6793893129770993,0.3282442748091603,-1.1603053435114503
1646443391867.8513,-0.00341796875,0.1234130859375,0.021240234375,-0.7022900763358778,0.29770992366412213,-1.1603053435114503
1646443391868.41,-0.00341796875,0.1234130859375,0.021240234375,-0.7022900763358778,0.29770992366412213,-1.1603053435114503
1646443391868.9666,-0.00299072265625,0.12310791015625,0.021240234375,-0.7022900763358778,0.2900763358778626,-1.1297709923664123
1646443391869.5266,-0.00506591796875,0.12298583984375,0.02142333984375,-0.7099236641221374,0.2824427480916031,-1.1221374045801527
1646443391870.0864,-0.00506591796875,0.12298583984375,0.02142333984375,-0.7099236641221374,0.2824427480916031,-1.1221374045801527
1646443391870.646,-0.00726318359375,0.12384033203125,0.0211181640625,-0.7175572519083969,0.2748091603053435,-1.1145038167938932
1646443391871.2043,-0.00726318359375,0.12384033203125,0.0211181640625,-0.7175572519083969,0.2748091603053435,-1.1145038167938932
1646443391871.7856,-0.0089111328125,0.12420654296875,0.0205078125,-0.6946564885496184,0.26717557251908397,-1.0687022900763359
1646443391872.4812,-0.00885009765625,0.12274169921875,0.02197265625,-0.6870229007633588,0.2824427480916031,-1.0305343511450382
1646443391873.044,-0.00885009765625,0.12274169921875,0.02197265625,-0.6870229007633588,0.2824427480916031,-1.0305343511450382
1646443391873.6038,-0.00738525390625,0.12255859375,0.0238037109375,-0.6946564885496184,0.2900763358778626,-0.9923664122137404
1646443391874.162,-0.00738525390625,0.12255859375,0.0238037109375,-0.6946564885496184,0.2900763358778626,-0.9923664122137404
1646443391874.7214,-0.00604248046875,0.12115478515625,0.02227783203125,-0.7022900763358778,0.2824427480916031,-0.9694656488549618
1646443391875.2812,-0.00604248046875,0.12115478515625,0.02227783203125,-0.7022900763358778,0.2824427480916031,-0.9694656488549618
1646443391875.8418,-0.00567626953125,0.1209716796875,0.02215576171875,-0.7099236641221374,0.26717557251908397,-0.9694656488549618
1646443391876.4016,-0.00567626953125,0.1209716796875,0.02215576171875,-0.7099236641221374,0.26717557251908397,-0.9694656488549618
1646443391876.9607,-0.004638671875,0.1219482421875,0.02154541015625,-0.7251908396946565,0.26717557251908397,-0.9541984732824428
1646443391877.5193,-0.00506591796875,0.1220703125,0.02069091796875,-0.7251908396946565,0.25190839694656486,-0.9465648854961832
1646443391878.0774,-0.00506591796875,0.1220703125,0.02069091796875,-0.7251908396946565,0.25190839694656486,-0.9465648854961832
1646443391878.6367,-0.005126953125,0.12237548828125,0.0213623046875,-0.7099236641221374,0.22137404580152673,-0.9389312977099237
1646443391879.196,-0.005126953125,0.12237548828125,0.0213623046875,-0.7099236641221374,0.22137404580152673,-0.9389312977099237
1646443391879.7551,-0.00555419921875,0.1209716796875,0.021240234375,-0.6946564885496184,0.21374045801526717,-0.9389312977099237
1646443391880.3137,-0.00555419921875,0.1209716796875,0.021240234375,-0.6946564885496184,0.21374045801526717,-0.9389312977099237
1646443391880.8733,-0.0059814453125,0.12158203125,0.02197265625,-0.7099236641221374,0.22137404580152673,-0.916030534351145
1646443391881.4304,-0.0059814453125,0.12158203125,0.02197265625,-0.7099236641221374,0.22137404580152673,-0.916030534351145
1646443391881.9888,-0.0054931640625,0.12066650390625,0.0216064453125,-0.7175572519083969,0.21374045801526717,-0.8854961832061069
1646443391882.5483,-0.0048828125,0.12042236328125,0.02197265625,-0.6793893129770993,0.21374045801526717,-0.8854961832061069
1646443391883.1064,-0.0048828125,0.12042236328125,0.02197265625,-0.6793893129770993,0.21374045801526717,-0.8854961832061069
1646443391883.6636,-0.00494384765625,0.11968994140625,0.02178955078125,-0.648854961832061,0.2366412213740458,-0.8778625954198473
1646443391884.2234,-0.00494384765625,0.11968994140625,0.02178955078125,-0.648854961832061,0.2366412213740458,-0.8778625954198473
1646443391884.7827,-0.00439453125,0.12017822265625,0.02215576171875,-0.6641221374045801,0.26717557251908397,-0.8625954198473282
1646443391885.3416,-0.00439453125,0.12017822265625,0.02215576171875,-0.6641221374045801,0.26717557251908397,-0.8625954198473282
1646443391885.9,-0.00439453125,0.12005615234375,0.02197265625,-0.6870229007633588,0.2824427480916031,-0.8702290076335878
1646443391886.4558,-0.00439453125,0.12005615234375,0.02197265625,-0.6870229007633588,0.2824427480916031,-0.8702290076335878
1646443391887.0144,-0.00482177734375,0.1204833984375,0.02081298828125,-0.6793893129770993,0.2595419847328244,-0.8473282442748091
1646443391887.5732,-0.0045166015625,0.1201171875,0.02020263671875,-0.6793893129770993,0.2366412213740458,-0.816793893129771
1646443391888.1306,-0.0045166015625,0.1201171875,0.02020263671875,-0.6793893129770993,0.2366412213740458,-0.816793893129771
1646443391888.6868,-0.00457763671875,0.12103271484375,0.02093505859375,-0.6946564885496184,0.2366412213740458,-0.8091603053435115
1646443391889.2473,-0.00457763671875,0.12103271484375,0.02093505859375,-0.6946564885496184,0.2366412213740458,-0.8091603053435115
1646443391889.807,-0.005126953125,0.12030029296875,0.02166748046875,-0.7175572519083969,0.22900763358778625,-0.7862595419847328
1646443391890.3667,-0.005126953125,0.12030029296875,0.02166748046875,-0.7175572519083969,0.22900763358778625,-0.7862595419847328
1646443391890.9253,-0.0057373046875,0.12066650390625,0.0218505859375,-0.7099236641221374,0.22900763358778625,-0.7862595419847328
1646443391891.4854,-0.00531005859375,0.12127685546875,0.0208740234375,-0.6946564885496184,0.21374045801526717,-0.7633587786259542
1646443391892.044,-0.00531005859375,0.12127685546875,0.0208740234375,-0.6946564885496184,0.21374045801526717,-0.7633587786259542
1646443391892.6038,-0.00592041015625,0.1217041015625,0.02252197265625,-0.6870229007633588,0.1984732824427481,-0.7404580152671756
1646443391893.1624,-0.00592041015625,0.1217041015625,0.02252197265625,-0.6870229007633588,0.1984732824427481,-0.7404580152671756
1646443391893.7207,-0.00482177734375,0.12176513671875,0.02325439453125,-0.6870229007633588,0.20610687022900764,-0.7251908396946565
1646443391894.2795,-0.00482177734375,0.12176513671875,0.02325439453125,-0.6870229007633588,0.20610687022900764,-0.7251908396946565
1646443391894.839,-0.00457763671875,0.122314453125,0.02252197265625,-0.7022900763358778,0.1984732824427481,-0.7099236641221374
1646443391895.3992,-0.00457763671875,0.122314453125,0.02252197265625,-0.7022900763358778,0.1984732824427481,-0.7099236641221374
1646443391895.9573,-0.00543212890625,0.12213134765625,0.0218505859375,-0.7022900763358778,0.20610687022900764,-0.7022900763358778
1646443391896.5168,-0.00579833984375,0.12322998046875,0.02374267578125,-0.6793893129770993,0.20610687022900764,-0.6946564885496184
1646443391897.076,-0.00579833984375,0.12322998046875,0.02374267578125,-0.6793893129770993,0.20610687022900764,-0.6946564885496184
1646443391897.6365,-0.00579833984375,0.12200927734375,0.02410888671875,-0.7099236641221374,0.20610687022900764,-0.6870229007633588
1646443391898.196,-0.00579833984375,0.12200927734375,0.02410888671875,-0.7099236641221374,0.20610687022900764,-0.6870229007633588
1646443391898.756,-0.00567626953125,0.1226806640625,0.0225830078125,-0.7404580152671756,0.26717557251908397,-0.6564885496183206
1646443391899.3142,-0.00567626953125,0.1226806640625,0.0225830078125,-0.7404580152671756,0.26717557251908397,-0.6564885496183206
1646443391899.874,-0.00469970703125,0.12249755859375,0.0238037109375,-0.6793893129770993,0.29770992366412213,-0.6412213740458015
1646443391900.432,-0.00469970703125,0.12249755859375,0.0238037109375,-0.6793893129770993,0.29770992366412213,-0.6412213740458015
1646443391900.9917,-0.00341796875,0.12225341796875,0.02569580078125,-0.6412213740458015,0.24427480916030533,-0.6259541984732825
1646443391901.5513,-0.0040283203125,0.123046875,0.02471923828125,-0.6412213740458015,0.22900763358778625,-0.6106870229007634
1646443391902.1091,-0.0040283203125,0.123046875,0.02471923828125,-0.6412213740458015,0.22900763358778625,-0.6106870229007634
1646443391902.6653,-0.004638671875,0.1234130859375,0.0244140625,-0.6641221374045801,0.2595419847328244,-0.6030534351145038
1646443391903.2222,-0.004638671875,0.1234130859375,0.0244140625,-0.6641221374045801,0.2595419847328244,-0.6030534351145038
1646443391903.78,-0.00457763671875,0.123291015625,0.025146484375,-0.6335877862595419,0.2748091603053435,-0.6030534351145038
1646443391904.337,-0.00457763671875,0.123291015625,0.025146484375,-0.6335877862595419,0.2748091603053435,-0.6030534351145038
1646443391904.895,-0.00408935546875,0.123046875,0.02471923828125,-0.6030534351145038,0.2595419847328244,-0.6030534351145038
1646443391905.4514,-0.00408935546875,0.123046875,0.02471923828125,-0.6030534351145038,0.2595419847328244,-0.6030534351145038
1646443391906.0093,-0.0035400390625,0.12274169921875,0.02471923828125,-0.6259541984732825,0.22137404580152673,-0.6030534351145038
1646443391906.5684,-0.0040283203125,0.1224365234375,0.0240478515625,-0.648854961832061,0.1984732824427481,-0.5877862595419847
1646443391907.1274,-0.0040283203125,0.1224365234375,0.0240478515625,-0.648854961832061,0.1984732824427481,-0.5877862595419847
1646443391907.685,-0.00323486328125,0.1220703125,0.02435302734375,-0.6412213740458015,0.21374045801526717,-0.5954198473282443
1646443391908.365,-0.00323486328125,0.1220703125,0.02435302734375,-0.6412213740458015,0.21374045801526717,-0.5954198473282443
1646443391908.927,-0.00347900390625,0.1221923828125,0.02423095703125,-0.6106870229007634,0.21374045801526717,-0.5725190839694656
1646443391909.4988,-0.003173828125,0.12249755859375,0.02386474609375,-0.5954198473282443,0.1984732824427481,-0.5572519083969466
1646443391910.1035,-0.003173828125,0.12249755859375,0.02386474609375,-0.5954198473282443,0.1984732824427481,-0.5572519083969466
1646443391910.6755,-0.002197265625,0.12115478515625,0.02374267578125,-0.5877862595419847,0.183206106870229,-0.5419847328244275
1646443391911.2363,-0.002197265625,0.12115478515625,0.02374267578125,-0.5877862595419847,0.183206106870229,-0.5419847328244275
1646443391911.832,-0.00213623046875,0.1209716796875,0.025146484375,-0.5877862595419847,0.19083969465648856,-0.5343511450381679
1646443391912.392,-0.00213623046875,0.1209716796875,0.025146484375,-0.5877862595419847,0.19083969465648856,-0.5343511450381679
1646443391912.9507,-0.00341796875,0.12042236328125,0.02520751953125,-0.5801526717557252,0.19083969465648856,-0.5343511450381679
1646443391913.5117,-0.00347900390625,0.12127685546875,0.025146484375,-0.5419847328244275,0.1984732824427481,-0.5419847328244275
1646443391914.0715,-0.00347900390625,0.12127685546875,0.025146484375,-0.5419847328244275,0.1984732824427481,-0.5419847328244275
1646443391914.6313,-0.0028076171875,0.120849609375,0.0257568359375,-0.48091603053435117,0.20610687022900764,-0.5419847328244275
1646443391915.1897,-0.0028076171875,0.120849609375,0.0257568359375,-0.48091603053435117,0.20610687022900764,-0.5419847328244275
1646443391915.7478,-0.00238037109375,0.12060546875,0.02490234375,-0.42748091603053434,0.19083969465648856,-0.5419847328244275
1646443391916.3062,-0.00238037109375,0.12060546875,0.02490234375,-0.42748091603053434,0.19083969465648856,-0.5419847328244275
1646443391916.8638,-0.00250244140625,0.12030029296875,0.0252685546875,-0.4198473282442748,0.183206106870229,-0.5267175572519084
1646443391917.424,-0.00250244140625,0.12030029296875,0.0252685546875,-0.4198473282442748,0.183206106870229,-0.5267175572519084
1646443391917.9822,-0.00323486328125,0.12078857421875,0.02569580078125,-0.40458015267175573,0.19083969465648856,-0.5190839694656488
1646443391918.545,-0.00262451171875,0.1202392578125,0.02685546875,-0.35877862595419846,0.19083969465648856,-0.5190839694656488
1646443391919.1038,-0.00262451171875,0.1202392578125,0.02685546875,-0.35877862595419846,0.19083969465648856,-0.5190839694656488
1646443391919.6633,-0.00286865234375,0.12060546875,0.02593994140625,-0.3511450381679389,0.19083969465648856,-0.5343511450381679
1646443391920.222,-0.00286865234375,0.12060546875,0.02593994140625,-0.3511450381679389,0.19083969465648856,-0.5343511450381679
1646443391920.781,-0.00286865234375,0.1212158203125,0.02606201171875,-0.366412213740458,0.1984732824427481,-0.5267175572519084
1646443391921.339,-0.00286865234375,0.1212158203125,0.02606201171875,-0.366412213740458,0.1984732824427481,-0.5267175572519084
1646443391921.8987,-0.0030517578125,0.1214599609375,0.02569580078125,-0.37404580152671757,0.1984732824427481,-0.5114503816793893
1646443391922.4583,-0.0030517578125,0.1214599609375,0.02569580078125,-0.37404580152671757,0.1984732824427481,-0.5114503816793893
1646443391923.0178,-0.00360107421875,0.12103271484375,0.02557373046875,-0.35877862595419846,0.21374045801526717,-0.5038167938931297
1646443391923.5781,-0.00439453125,0.12115478515625,0.02398681640625,-0.33587786259541985,0.22137404580152673,-0.4961832061068702
1646443391924.1372,-0.00439453125,0.12115478515625,0.02398681640625,-0.33587786259541985,0.22137404580152673,-0.4961832061068702
1646443391924.696,-0.00384521484375,0.12176513671875,0.02435302734375,-0.29770992366412213,0.22137404580152673,-0.48854961832061067
1646443391925.2563,-0.00384521484375,0.12176513671875,0.02435302734375,-0.29770992366412213,0.22137404580152673,-0.48854961832061067
1646443391925.818,-0.004150390625,0.1217041015625,0.02423095703125,-0.2366412213740458,0.22137404580152673,-0.4732824427480916
1646443391926.3755,-0.004150390625,0.1217041015625,0.02423095703125,-0.2366412213740458,0.22137404580152673,-0.4732824427480916
1646443391926.9358,-0.00457763671875,0.12274169921875,0.02374267578125,-0.17557251908396945,0.2595419847328244,-0.4732824427480916
1646443391927.4958,-0.0048828125,0.12261962890625,0.02484130859375,-0.15267175572519084,0.2900763358778626,-0.46564885496183206
1646443391928.056,-0.0048828125,0.12261962890625,0.02484130859375,-0.15267175572519084,0.2900763358778626,-0.46564885496183206
1646443391928.615,-0.0050048828125,0.1231689453125,0.02386474609375,-0.15267175572519084,0.29770992366412213,-0.46564885496183206
1646443391929.1758,-0.0050048828125,0.1231689453125,0.02386474609375,-0.15267175572519084,0.29770992366412213,-0.46564885496183206
1646443391929.7356,-0.00469970703125,0.12255859375,0.02435302734375,-0.15267175572519084,0.31297709923664124,-0.45038167938931295
1646443391930.2969,-0.00469970703125,0.12255859375,0.02435302734375,-0.15267175572519084,0.31297709923664124,-0.45038167938931295
1646443391930.8564,-0.00445556640625,0.1224365234375,0.02392578125,-0.15267175572519084,0.31297709923664124,-0.42748091603053434
1646443391931.4182,-0.00445556640625,0.1224365234375,0.02392578125,-0.15267175572519084,0.31297709923664124,-0.42748091603053434
1646443391931.977,-0.00445556640625,0.12225341796875,0.02386474609375,-0.16793893129770993,0.3053435114503817,-0.42748091603053434
1646443391932.5374,-0.00506591796875,0.12255859375,0.02386474609375,-0.19083969465648856,0.29770992366412213,-0.4198473282442748
1646443391933.0962,-0.00506591796875,0.12255859375,0.02386474609375,-0.19083969465648856,0.29770992366412213,-0.4198473282442748
1646443391933.6555,-0.005126953125,0.122802734375,0.02410888671875,-0.20610687022900764,0.29770992366412213,-0.4122137404580153
1646443391934.215,-0.005126953125,0.122802734375,0.02410888671875,-0.20610687022900764,0.29770992366412213,-0.4122137404580153
1646443391934.7737,-0.00469970703125,0.12237548828125,0.02398681640625,-0.19083969465648856,0.2748091603053435,-0.3969465648854962
1646443391935.334,-0.00469970703125,0.12237548828125,0.02398681640625,-0.19083969465648856,0.2748091603053435,-0.3969465648854962
1646443391935.8938,-0.00433349609375,0.121826171875,0.0218505859375,-0.17557251908396945,0.26717557251908397,-0.37404580152671757
1646443391936.4556,-0.00433349609375,0.121826171875,0.0218505859375,-0.17557251908396945,0.26717557251908397,-0.37404580152671757
1646443391937.0156,-0.0048828125,0.12255859375,0.02117919921875,-0.1450381679389313,0.2824427480916031,-0.37404580152671757
1646443391937.5745,-0.00494384765625,0.1224365234375,0.022705078125,-0.1297709923664122,0.2824427480916031,-0.366412213740458
1646443391938.1333,-0.00494384765625,0.1224365234375,0.022705078125,-0.1297709923664122,0.2824427480916031,-0.366412213740458
1646443391938.6921,-0.0042724609375,0.12200927734375,0.02227783203125,-0.11450381679389313,0.2824427480916031,-0.3511450381679389
1646443391939.252,-0.0042724609375,0.12200927734375,0.02227783203125,-0.11450381679389313,0.2824427480916031,-0.3511450381679389
1646443391939.8123,-0.0037841796875,0.12200927734375,0.0220947265625,-0.09923664122137404,0.2824427480916031,-0.33587786259541985
1646443391940.3713,-0.0037841796875,0.12200927734375,0.0220947265625,-0.09923664122137404,0.2824427480916031,-0.33587786259541985
1646443391940.9307,-0.0047607421875,0.1214599609375,0.02276611328125,-0.0916030534351145,0.29770992366412213,-0.33587786259541985
1646443391941.4915,-0.00433349609375,0.1207275390625,0.022216796875,-0.08396946564885496,0.29770992366412213,-0.3435114503816794
1646443391942.0505,-0.00433349609375,0.1207275390625,0.022216796875,-0.08396946564885496,0.29770992366412213,-0.3435114503816794
1646443391942.6116,-0.005126953125,0.120849609375,0.02252197265625,-0.08396946564885496,0.2748091603053435,-0.33587786259541985
1646443391943.171,-0.005126953125,0.120849609375,0.02252197265625,-0.08396946564885496,0.2748091603053435,-0.33587786259541985
1646443391943.73,-0.00555419921875,0.1209716796875,0.02239990234375,-0.12213740458015267,0.2748091603053435,-0.31297709923664124
1646443391944.4795,-0.0054931640625,0.1204833984375,0.0220947265625,-0.1297709923664122,0.2595419847328244,-0.2900763358778626
1646443391945.0437,-0.0054931640625,0.1204833984375,0.0220947265625,-0.1297709923664122,0.2595419847328244,-0.2900763358778626
1646443391945.6035,-0.00543212890625,0.12042236328125,0.023193359375,-0.13740458015267176,0.2366412213740458,-0.2748091603053435
1646443391946.1628,-0.00543212890625,0.12042236328125,0.023193359375,-0.13740458015267176,0.2366412213740458,-0.2748091603053435
1646443391946.722,-0.00616455078125,0.12164306640625,0.02386474609375,-0.13740458015267176,0.21374045801526717,-0.24427480916030533
1646443391947.2822,-0.00616455078125,0.12164306640625,0.02386474609375,-0.13740458015267176,0.21374045801526717,-0.24427480916030533
1646443391947.8442,-0.008056640625,0.12115478515625,0.02294921875,-0.11450381679389313,0.22900763358778625,-0.22137404580152673
1646443391948.4033,-0.008056640625,0.12115478515625,0.02294921875,-0.11450381679389313,0.22900763358778625,-0.22137404580152673
1646443391948.9639,-0.0101318359375,0.12115478515625,0.022705078125,-0.10687022900763359,0.21374045801526717,-0.19083969465648856
1646443391949.524,-0.01708984375,0.12322998046875,0.0211181640625,-0.09923664122137404,0.11450381679389313,-0.12213740458015267
1646443391950.0842,-0.01708984375,0.12322998046875,0.0211181640625,-0.09923664122137404,0.11450381679389313,-0.12213740458015267
1646443391950.6436,-0.02362060546875,0.1234130859375,0.021240234375,-0.13740458015267176,0.04580152671755725,-0.022900763358778626
1646443391951.204,-0.02362060546875,0.1234130859375,0.021240234375,-0.13740458015267176,0.04580152671755725,-0.022900763358778626
1646443391951.796,-0.02117919921875,0.12188720703125,0.0225830078125,-0.13740458015267176,0.13740458015267176,0.07633587786259542
1646443391952.357,-0.02117919921875,0.12188720703125,0.0225830078125,-0.13740458015267176,0.13740458015267176,0.07633587786259542
1646443391952.9163,-0.01470947265625,0.11865234375,0.024658203125,-0.09923664122137404,0.26717557251908397,0.183206106870229
1646443391953.4749,-0.00836181640625,0.118408203125,0.02532958984375,-0.03816793893129771,0.29770992366412213,0.21374045801526717
1646443391954.0352,-0.00836181640625,0.118408203125,0.02532958984375,-0.03816793893129771,0.29770992366412213,0.21374045801526717
1646443391954.5942,-0.0047607421875,0.12005615234375,0.02105712890625,-0.05343511450381679,0.3053435114503817,0.21374045801526717
1646443391955.1543,-0.0047607421875,0.12005615234375,0.02105712890625,-0.05343511450381679,0.3053435114503817,0.21374045801526717
1646443391955.7134,-0.0029296875,0.120361328125,0.01751708984375,-0.10687022900763359,0.2900763358778626,0.22900763358778625
1646443391956.2717,-0.0029296875,0.120361328125,0.01751708984375,-0.10687022900763359,0.2900763358778626,0.22900763358778625
1646443391956.8296,-0.00335693359375,0.12017822265625,0.01739501953125,-0.13740458015267176,0.2824427480916031,0.24427480916030533
1646443391957.3904,-0.00335693359375,0.12017822265625,0.01739501953125,-0.13740458015267176,0.2824427480916031,0.24427480916030533
1646443391957.95,-0.00518798828125,0.1209716796875,0.018798828125,-0.13740458015267176,0.26717557251908397,0.25190839694656486
1646443391958.51,-0.00653076171875,0.12066650390625,0.0203857421875,-0.11450381679389313,0.24427480916030533,0.26717557251908397
1646443391959.0684,-0.00653076171875,0.12066650390625,0.0203857421875,-0.11450381679389313,0.24427480916030533,0.26717557251908397
1646443391959.6294,-0.00579833984375,0.12030029296875,0.02056884765625,-0.07633587786259542,0.24427480916030533,0.2900763358778626
1646443391960.1887,-0.00579833984375,0.12030029296875,0.02056884765625,-0.07633587786259542,0.24427480916030533,0.2900763358778626
1646443391960.7493,-0.0057373046875,0.11956787109375,0.019775390625,-0.05343511450381679,0.25190839694656486,0.31297709923664124
1646443391961.3103,-0.0057373046875,0.11956787109375,0.019775390625,-0.05343511450381679,0.25190839694656486,0.31297709923664124
1646443391961.8687,-0.00482177734375,0.1195068359375,0.0213623046875,-0.03816793893129771,0.22900763358778625,0.32061068702290074
1646443391962.4277,-0.00482177734375,0.1195068359375,0.0213623046875,-0.03816793893129771,0.22900763358778625,0.32061068702290074
1646443391962.9873,-0.00384521484375,0.11846923828125,0.02001953125,-0.04580152671755725,0.19083969465648856,0.3053435114503817
1646443391963.5469,-0.001708984375,0.11865234375,0.0198974609375,-0.06870229007633588,0.16030534351145037,0.29770992366412213
1646443391964.106,-0.001708984375,0.11865234375,0.0198974609375,-0.06870229007633588,0.16030534351145037,0.29770992366412213
1646443391964.665,-0.00067138671875,0.118896484375,0.0194091796875,-0.10687022900763359,0.10687022900763359,0.2900763358778626
1646443391965.2239,-0.00067138671875,0.118896484375,0.0194091796875,-0.10687022900763359,0.10687022900763359,0.2900763358778626
1646443391965.7847,-0.0008544921875,0.1195068359375,0.01983642578125,-0.1450381679389313,0.022900763358778626,0.2824427480916031
1646443391966.344,-0.0008544921875,0.1195068359375,0.01983642578125,-0.1450381679389313,0.022900763358778626,0.2824427480916031
1646443391966.9048,-0.00042724609375,0.11944580078125,0.01861572265625,-0.21374045801526717,-0.04580152671755725,0.2595419847328244
1646443391967.467,-0.0009765625,0.1201171875,0.018798828125,-0.26717557251908397,-0.12213740458015267,0.2366412213740458
1646443391968.0264,-0.0009765625,0.1201171875,0.018798828125,-0.26717557251908397,-0.12213740458015267,0.2366412213740458
1646443391968.5847,-0.00079345703125,0.11932373046875,0.02020263671875,-0.29770992366412213,-0.17557251908396945,0.22900763358778625
1646443391969.148,-0.00079345703125,0.11932373046875,0.02020263671875,-0.29770992366412213,-0.17557251908396945,0.22900763358778625
1646443391969.7087,-0.00128173828125,0.12042236328125,0.0208740234375,-0.3053435114503817,-0.22900763358778625,0.21374045801526717
1646443391970.2693,-0.00128173828125,0.12042236328125,0.0208740234375,-0.3053435114503817,-0.22900763358778625,0.21374045801526717
1646443391970.8303,-0.0013427734375,0.1212158203125,0.02105712890625,-0.2748091603053435,-0.2366412213740458,0.20610687022900764
1646443391971.3906,-0.0013427734375,0.1212158203125,0.02105712890625,-0.2748091603053435,-0.2366412213740458,0.20610687022900764
1646443391971.9512,-0.0013427734375,0.12188720703125,0.0225830078125,-0.25190839694656486,-0.19083969465648856,0.21374045801526717
1646443391972.5122,-0.00103759765625,0.1214599609375,0.0238037109375,-0.22137404580152673,-0.15267175572519084,0.21374045801526717
1646443391973.0747,-0.00103759765625,0.1214599609375,0.0238037109375,-0.22137404580152673,-0.15267175572519084,0.21374045801526717
1646443391973.635,0.0001220703125,0.1226806640625,0.02294921875,-0.22137404580152673,-0.10687022900763359,0.22137404580152673
1646443391974.1963,0.0001220703125,0.1226806640625,0.02294921875,-0.22137404580152673,-0.10687022900763359,0.22137404580152673
1646443391974.7559,6.103515625e-05,0.12298583984375,0.022705078125,-0.24427480916030533,-0.07633587786259542,0.20610687022900764
1646443391975.3508,6.103515625e-05,0.12298583984375,0.022705078125,-0.24427480916030533,-0.07633587786259542,0.20610687022900764
1646443391975.9163,0.00067138671875,0.1236572265625,0.02301025390625,-0.25190839694656486,-0.06870229007633588,0.19083969465648856
1646443391976.4773,0.0006103515625,0.12457275390625,0.023193359375,-0.2595419847328244,-0.03816793893129771,0.183206106870229
1646443391977.0356,0.0006103515625,0.12457275390625,0.023193359375,-0.2595419847328244,-0.03816793893129771,0.183206106870229
1646443391977.5938,0.001220703125,0.12518310546875,0.0223388671875,-0.26717557251908397,0.007633587786259542,0.16793893129770993
1646443391978.1523,0.001220703125,0.12518310546875,0.0223388671875,-0.26717557251908397,0.007633587786259542,0.16793893129770993
1646443391978.7112,0.00238037109375,0.125244140625,0.02239990234375,-0.26717557251908397,0.022900763358778626,0.13740458015267176
1646443391979.2705,0.00238037109375,0.125244140625,0.02239990234375,-0.26717557251908397,0.022900763358778626,0.13740458015267176
1646443391979.8289,0.003173828125,0.1241455078125,0.02178955078125,-0.2595419847328244,0.030534351145038167,0.09923664122137404
1646443391980.523,0.00335693359375,0.12445068359375,0.02154541015625,-0.24427480916030533,0.05343511450381679,0.04580152671755725
1646443391981.0842,0.00335693359375,0.12445068359375,0.02154541015625,-0.24427480916030533,0.05343511450381679,0.04580152671755725
1646443391981.6453,0.00372314453125,0.1240234375,0.02154541015625,-0.21374045801526717,0.06870229007633588,0.030534351145038167
1646443391982.203,0.00372314453125,0.1240234375,0.02154541015625,-0.21374045801526717,0.06870229007633588,0.030534351145038167
1646443391982.76,0.0040283203125,0.123291015625,0.02130126953125,-0.1984732824427481,0.10687022900763359,0.015267175572519083
1646443391983.316,0.0040283203125,0.123291015625,0.02130126953125,-0.1984732824427481,0.10687022900763359,0.015267175572519083
1646443391983.8723,0.00457763671875,0.122802734375,0.021484375,-0.17557251908396945,0.15267175572519084,-0.015267175572519083
1646443391984.4304,0.00457763671875,0.122802734375,0.021484375,-0.17557251908396945,0.15267175572519084,-0.015267175572519083
1646443391984.9878,0.00408935546875,0.12237548828125,0.02191162109375,-0.16030534351145037,0.19083969465648856,-0.04580152671755725
1646443391985.5483,0.00323486328125,0.120849609375,0.0211181640625,-0.1450381679389313,0.25190839694656486,-0.061068702290076333
1646443391986.1062,0.00323486328125,0.120849609375,0.0211181640625,-0.1450381679389313,0.25190839694656486,-0.061068702290076333
1646443391986.6655,0.003173828125,0.1207275390625,0.02197265625,-0.1297709923664122,0.3053435114503817,-0.09923664122137404
1646443391987.2224,0.003173828125,0.1207275390625,0.02197265625,-0.1297709923664122,0.3053435114503817,-0.09923664122137404
1646443391987.78,0.0029296875,0.12066650390625,0.0198974609375,-0.1297709923664122,0.3053435114503817,-0.1297709923664122
1646443391988.336,0.0029296875,0.12066650390625,0.0198974609375,-0.1297709923664122,0.3053435114503817,-0.1297709923664122
1646443391988.8923,0.00250244140625,0.11968994140625,0.02032470703125,-0.1450381679389313,0.31297709923664124,-0.16793893129770993
1646443391989.4514,0.00250244140625,0.11968994140625,0.02032470703125,-0.1450381679389313,0.31297709923664124,-0.16793893129770993
1646443391990.0125,0.0025634765625,0.11865234375,0.0203857421875,-0.13740458015267176,0.2900763358778626,-0.183206106870229
1646443391990.5688,0.0018310546875,0.1195068359375,0.02008056640625,-0.19083969465648856,0.24427480916030533,-0.183206106870229
1646443391991.1296,0.0018310546875,0.1195068359375,0.02008056640625,-0.19083969465648856,0.24427480916030533,-0.183206106870229
1646443391991.7148,0.00177001953125,0.11932373046875,0.0189208984375,-0.21374045801526717,0.24427480916030533,-0.20610687022900764
1646443391992.2761,0.00177001953125,0.11932373046875,0.0189208984375,-0.21374045801526717,0.24427480916030533,-0.20610687022900764
1646443391992.8374,0.001220703125,0.11981201171875,0.0186767578125,-0.16793893129770993,0.25190839694656486,-0.24427480916030533
1646443391993.3972,0.001220703125,0.11981201171875,0.0186767578125,-0.16793893129770993,0.25190839694656486,-0.24427480916030533
1646443391993.9583,0.00201416015625,0.11871337890625,0.02197265625,-0.12213740458015267,0.13740458015267176,-0.26717557251908397
1646443391994.5178,0.00018310546875,0.11785888671875,0.02117919921875,-0.13740458015267176,0.04580152671755725,-0.2900763358778626
1646443391995.08,0.00018310546875,0.11785888671875,0.02117919921875,-0.13740458015267176,0.04580152671755725,-0.2900763358778626
1646443391995.6406,0.0001220703125,0.117919921875,0.0194091796875,-0.16793893129770993,0.13740458015267176,-0.29770992366412213
1646443391996.2026,0.0001220703125,0.117919921875,0.0194091796875,-0.16793893129770993,0.13740458015267176,-0.29770992366412213
1646443391996.7632,6.103515625e-05,0.1187744140625,0.02032470703125,-0.17557251908396945,0.22137404580152673,-0.29770992366412213
1646443391997.3318,6.103515625e-05,0.1187744140625,0.02032470703125,-0.17557251908396945,0.22137404580152673,-0.29770992366412213
1646443391997.8967,-0.00018310546875,0.1185302734375,0.02252197265625,-0.16793893129770993,0.22137404580152673,-0.2900763358778626
1646443391998.458,-0.00018310546875,0.1185302734375,0.02252197265625,-0.16793893129770993,0.22137404580152673,-0.2900763358778626
1646443391999.0186,-0.00067138671875,0.118896484375,0.02166748046875,-0.17557251908396945,0.183206106870229,-0.3053435114503817
1646443391999.58,-0.00115966796875,0.119873046875,0.020751953125,-0.17557251908396945,0.1984732824427481,-0.3053435114503817
1646443392000.1382,-0.00115966796875,0.119873046875,0.020751953125,-0.17557251908396945,0.1984732824427481,-0.3053435114503817
1646443392000.697,-0.00164794921875,0.12066650390625,0.02008056640625,-0.15267175572519084,0.26717557251908397,-0.3053435114503817
1646443392001.2747,-0.00164794921875,0.12066650390625,0.02008056640625,-0.15267175572519084,0.26717557251908397,-0.3053435114503817
1646443392001.8367,-0.002685546875,0.12139892578125,0.01898193359375,-0.16793893129770993,0.2824427480916031,-0.32061068702290074
1646443392002.3987,-0.002685546875,0.12139892578125,0.01898193359375,-0.16793893129770993,0.2824427480916031,-0.32061068702290074
1646443392002.9585,-0.00225830078125,0.12152099609375,0.0189208984375,-0.1984732824427481,0.2366412213740458,-0.3053435114503817
1646443392003.5195,-0.001953125,0.1221923828125,0.0201416015625,-0.26717557251908397,0.22137404580152673,-0.29770992366412213
1646443392004.0793,-0.001953125,0.1221923828125,0.0201416015625,-0.26717557251908397,0.22137404580152673,-0.29770992366412213
1646443392004.6401,-0.00189208984375,0.12359619140625,0.02044677734375,-0.26717557251908397,0.2366412213740458,-0.29770992366412213
1646443392005.2017,-0.00189208984375,0.12359619140625,0.02044677734375,-0.26717557251908397,0.2366412213740458,-0.29770992366412213
1646443392005.764,-0.0020751953125,0.1240234375,0.0208740234375,-0.24427480916030533,0.2366412213740458,-0.29770992366412213
1646443392006.3215,-0.0020751953125,0.1240234375,0.0208740234375,-0.24427480916030533,0.2366412213740458,-0.29770992366412213
1646443392006.8809,-0.00238037109375,0.12445068359375,0.01947021484375,-0.24427480916030533,0.22137404580152673,-0.3053435114503817
1646443392007.4412,-0.00238037109375,0.12445068359375,0.01947021484375,-0.24427480916030533,0.22137404580152673,-0.3053435114503817
1646443392008.0007,-0.00286865234375,0.124267578125,0.01971435546875,-0.2366412213740458,0.22900763358778625,-0.3053435114503817
1646443392008.56,-0.00299072265625,0.1241455078125,0.0218505859375,-0.22137404580152673,0.2366412213740458,-0.2900763358778626
1646443392009.1184,-0.00299072265625,0.1241455078125,0.0218505859375,-0.22137404580152673,0.2366412213740458,-0.2900763358778626
1646443392009.678,-0.00274658203125,0.123291015625,0.0216064453125,-0.2366412213740458,0.24427480916030533,-0.26717557251908397
1646443392010.2375,-0.00274658203125,0.123291015625,0.0216064453125,-0.2366412213740458,0.24427480916030533,-0.26717557251908397
1646443392010.7974,-0.0032958984375,0.1239013671875,0.021240234375,-0.2748091603053435,0.2366412213740458,-0.26717557251908397
1646443392011.3557,-0.0032958984375,0.1239013671875,0.021240234375,-0.2748091603053435,0.2366412213740458,-0.26717557251908397
1646443392011.9148,-0.003173828125,0.123779296875,0.02020263671875,-0.29770992366412213,0.24427480916030533,-0.2595419847328244
1646443392012.4736,-0.0040283203125,0.12310791015625,0.0196533203125,-0.31297709923664124,0.25190839694656486,-0.25190839694656486
1646443392013.0356,-0.0040283203125,0.12310791015625,0.0196533203125,-0.31297709923664124,0.25190839694656486,-0.25190839694656486
1646443392013.5952,-0.003662109375,0.12298583984375,0.019287109375,-0.31297709923664124,0.2366412213740458,-0.2595419847328244
1646443392014.1545,-0.003662109375,0.12298583984375,0.019287109375,-0.31297709923664124,0.2366412213740458,-0.2595419847328244
1646443392014.7126,-0.0032958984375,0.122314453125,0.019287109375,-0.3282442748091603,0.21374045801526717,-0.26717557251908397
1646443392015.2727,-0.0032958984375,0.122314453125,0.019287109375,-0.3282442748091603,0.21374045801526717,-0.26717557251908397
1646443392015.8315,-0.00341796875,0.1220703125,0.01837158203125,-0.3511450381679389,0.1984732824427481,-0.25190839694656486
1646443392016.5288,-0.00262451171875,0.1214599609375,0.01904296875,-0.3511450381679389,0.16793893129770993,-0.22900763358778625
1646443392017.0942,-0.00262451171875,0.1214599609375,0.01904296875,-0.3511450381679389,0.16793893129770993,-0.22900763358778625
1646443392017.6543,-0.003173828125,0.12109375,0.01947021484375,-0.3511450381679389,0.13740458015267176,-0.2366412213740458
1646443392018.2131,-0.003173828125,0.12109375,0.01947021484375,-0.3511450381679389,0.13740458015267176,-0.2366412213740458
1646443392018.7705,-0.002685546875,0.1202392578125,0.01898193359375,-0.37404580152671757,0.11450381679389313,-0.22137404580152673
1646443392019.3313,-0.002685546875,0.1202392578125,0.01898193359375,-0.37404580152671757,0.11450381679389313,-0.22137404580152673
1646443392019.891,-0.00335693359375,0.12017822265625,0.019287109375,-0.3969465648854962,0.13740458015267176,-0.20610687022900764
1646443392020.4514,-0.00335693359375,0.12017822265625,0.019287109375,-0.3969465648854962,0.13740458015267176,-0.20610687022900764
1646443392021.0107,-0.0030517578125,0.11962890625,0.019287109375,-0.3893129770992366,0.16030534351145037,-0.20610687022900764
1646443392021.5718,-0.0030517578125,0.11956787109375,0.0189208984375,-0.3816793893129771,0.16030534351145037,-0.20610687022900764
1646443392022.1313,-0.0030517578125,0.11956787109375,0.0189208984375,-0.3816793893129771,0.16030534351145037,-0.20610687022900764
1646443392022.6904,-0.00347900390625,0.11993408203125,0.0189208984375,-0.37404580152671757,0.15267175572519084,-0.19083969465648856
1646443392023.251,-0.00347900390625,0.11993408203125,0.0189208984375,-0.37404580152671757,0.15267175572519084,-0.19083969465648856
1646443392023.8103,-0.00360107421875,0.119873046875,0.019775390625,-0.3893129770992366,0.16030534351145037,-0.17557251908396945
1646443392024.37,-0.00360107421875,0.119873046875,0.019775390625,-0.3893129770992366,0.16030534351145037,-0.17557251908396945
1646443392024.9282,-0.002685546875,0.1190185546875,0.020263671875,-0.3893129770992366,0.16030534351145037,-0.17557251908396945
1646443392025.4878,-0.0028076171875,0.1187744140625,0.0194091796875,-0.3969465648854962,0.16793893129770993,-0.183206106870229
1646443392026.0469,-0.0028076171875,0.1187744140625,0.0194091796875,-0.3969465648854962,0.16793893129770993,-0.183206106870229
1646443392026.6062,-0.0037841796875,0.118408203125,0.01910400390625,-0.3893129770992366,0.17557251908396945,-0.183206106870229
1646443392027.1648,-0.0037841796875,0.118408203125,0.01910400390625,-0.3893129770992366,0.17557251908396945,-0.183206106870229
1646443392027.7244,-0.00390625,0.11846923828125,0.0189208984375,-0.3816793893129771,0.19083969465648856,-0.16793893129770993
1646443392028.2827,-0.00390625,0.11846923828125,0.0189208984375,-0.3816793893129771,0.19083969465648856,-0.16793893129770993
1646443392028.8423,-0.003662109375,0.11846923828125,0.0196533203125,-0.3893129770992366,0.22900763358778625,-0.13740458015267176
1646443392029.402,-0.003662109375,0.11846923828125,0.0196533203125,-0.3893129770992366,0.22900763358778625,-0.13740458015267176
1646443392029.963,-0.00439453125,0.11932373046875,0.01776123046875,-0.3969465648854962,0.22900763358778625,-0.12213740458015267
1646443392030.5225,-0.00384521484375,0.12060546875,0.01947021484375,-0.4122137404580153,0.22137404580152673,-0.10687022900763359
1646443392031.0813,-0.00384521484375,0.12060546875,0.01947021484375,-0.4122137404580153,0.22137404580152673,-0.10687022900763359
1646443392031.6414,-0.0047607421875,0.120849609375,0.01849365234375,-0.4122137404580153,0.21374045801526717,-0.0916030534351145
1646443392032.199,-0.0047607421875,0.120849609375,0.01849365234375,-0.4122137404580153,0.21374045801526717,-0.0916030534351145
1646443392032.758,-0.00439453125,0.1202392578125,0.01947021484375,-0.4198473282442748,0.22137404580152673,-0.08396946564885496
1646443392033.3167,-0.00439453125,0.1202392578125,0.01947021484375,-0.4198473282442748,0.22137404580152673,-0.08396946564885496
1646443392033.8765,-0.00396728515625,0.12030029296875,0.0196533203125,-0.45038167938931295,0.20610687022900764,-0.08396946564885496
1646443392034.4368,-0.00396728515625,0.12030029296875,0.0196533203125,-0.45038167938931295,0.20610687022900764,-0.08396946564885496
1646443392034.9988,-0.0028076171875,0.12078857421875,0.0191650390625,-0.4732824427480916,0.16793893129770993,-0.07633587786259542
1646443392035.558,-0.0035400390625,0.121826171875,0.01983642578125,-0.45038167938931295,0.1297709923664122,-0.07633587786259542
1646443392036.1177,-0.0035400390625,0.121826171875,0.01983642578125,-0.45038167938931295,0.1297709923664122,-0.07633587786259542
1646443392036.677,-0.00384521484375,0.1219482421875,0.0194091796875,-0.46564885496183206,0.13740458015267176,-0.06870229007633588
1646443392037.238,-0.00384521484375,0.1219482421875,0.0194091796875,-0.46564885496183206,0.13740458015267176,-0.06870229007633588
1646443392037.7969,-0.0035400390625,0.12255859375,0.019775390625,-0.4961832061068702,0.13740458015267176,-0.07633587786259542
1646443392038.356,-0.0035400390625,0.12255859375,0.019775390625,-0.4961832061068702,0.13740458015267176,-0.07633587786259542
1646443392038.9128,-0.003173828125,0.1224365234375,0.0191650390625,-0.4961832061068702,0.12213740458015267,-0.06870229007633588
1646443392039.472,-0.00372314453125,0.12249755859375,0.01849365234375,-0.48854961832061067,0.09923664122137404,-0.05343511450381679
1646443392040.032,-0.00372314453125,0.12249755859375,0.01849365234375,-0.48854961832061067,0.09923664122137404,-0.05343511450381679
1646443392040.5916,-0.0032958984375,0.1214599609375,0.0184326171875,-0.5114503816793893,0.09923664122137404,-0.03816793893129771
1646443392041.1519,-0.0032958984375,0.1214599609375,0.0184326171875,-0.5114503816793893,0.09923664122137404,-0.03816793893129771
1646443392041.7383,-0.00286865234375,0.1217041015625,0.0194091796875,-0.5343511450381679,0.1297709923664122,-0.04580152671755725
1646443392042.2983,-0.00286865234375,0.1217041015625,0.0194091796875,-0.5343511450381679,0.1297709923664122,-0.04580152671755725
1646443392042.8564,-0.00341796875,0.1220703125,0.020263671875,-0.5267175572519084,0.1450381679389313,-0.03816793893129771
1646443392043.4143,-0.00341796875,0.1220703125,0.020263671875,-0.5267175572519084,0.1450381679389313,-0.03816793893129771
1646443392043.9695,-0.00286865234375,0.12310791015625,0.02056884765625,-0.5267175572519084,0.15267175572519084,-0.030534351145038167
1646443392044.5312,-0.00238037109375,0.12298583984375,0.01995849609375,-0.5343511450381679,0.1450381679389313,-0.015267175572519083
1646443392045.092,-0.00238037109375,0.12298583984375,0.01995849609375,-0.5343511450381679,0.1450381679389313,-0.015267175572519083
1646443392045.652,-0.00299072265625,0.12164306640625,0.02069091796875,-0.5572519083969466,0.1297709923664122,-0.015267175572519083
1646443392046.212,-0.00299072265625,0.12164306640625,0.02069091796875,-0.5572519083969466,0.1297709923664122,-0.015267175572519083
1646443392046.7727,-0.00286865234375,0.12109375,0.01971435546875,-0.5801526717557252,0.15267175572519084,-0.022900763358778626
1646443392047.3315,-0.00286865234375,0.12109375,0.01971435546875,-0.5801526717557252,0.15267175572519084,-0.022900763358778626
1646443392047.8894,-0.00177001953125,0.12078857421875,0.0189208984375,-0.5725190839694656,0.1450381679389313,-0.030534351145038167
1646443392048.4502,-0.00177001953125,0.12078857421875,0.0189208984375,-0.5725190839694656,0.1450381679389313,-0.030534351145038167
1646443392049.0103,-0.001708984375,0.12109375,0.01885986328125,-0.5954198473282443,0.11450381679389313,-0.030534351145038167
1646443392049.57,-0.00140380859375,0.120361328125,0.01849365234375,-0.6106870229007634,0.11450381679389313,-0.030534351145038167
1646443392050.1296,-0.00140380859375,0.120361328125,0.01849365234375,-0.6106870229007634,0.11450381679389313,-0.030534351145038167
1646443392050.692,-0.001953125,0.1207275390625,0.01934814453125,-0.6183206106870229,0.10687022900763359,-0.030534351145038167
1646443392051.2686,-0.001953125,0.1207275390625,0.01934814453125,-0.6183206106870229,0.10687022900763359,-0.030534351145038167
1646443392051.8325,-0.00238037109375,0.1207275390625,0.01812744140625,-0.6106870229007634,0.12213740458015267,-0.030534351145038167
1646443392052.5186,-0.00250244140625,0.11981201171875,0.01861572265625,-0.6106870229007634,0.1297709923664122,-0.030534351145038167
1646443392053.084,-0.00250244140625,0.11981201171875,0.01861572265625,-0.6106870229007634,0.1297709923664122,-0.030534351145038167
1646443392053.644,-0.00250244140625,0.1199951171875,0.0189208984375,-0.6183206106870229,0.12213740458015267,-0.022900763358778626
1646443392054.204,-0.00250244140625,0.1199951171875,0.0189208984375,-0.6183206106870229,0.12213740458015267,-0.022900763358778626
1646443392054.7632,-0.002685546875,0.1195068359375,0.01959228515625,-0.6412213740458015,0.11450381679389313,-0.015267175572519083
1646443392055.323,-0.002685546875,0.1195068359375,0.01959228515625,-0.6412213740458015,0.11450381679389313,-0.015267175572519083
1646443392055.8838,-0.003173828125,0.11956787109375,0.02001953125,-0.6564885496183206,0.08396946564885496,-0.015267175572519083
1646443392056.442,-0.003173828125,0.11956787109375,0.02001953125,-0.6564885496183206,0.08396946564885496,-0.015267175572519083
1646443392057.0005,-0.0023193359375,0.11962890625,0.019775390625,-0.6564885496183206,0.0916030534351145,-0.022900763358778626
1646443392057.5583,-0.0023193359375,0.1197509765625,0.0191650390625,-0.6641221374045801,0.10687022900763359,-0.022900763358778626
1646443392058.1187,-0.0023193359375,0.1197509765625,0.0191650390625,-0.6641221374045801,0.10687022900763359,-0.022900763358778626
1646443392058.6777,-0.00299072265625,0.119384765625,0.0191650390625,-0.6641221374045801,0.0916030534351145,-0.015267175572519083
1646443392059.237,-0.00299072265625,0.119384765625,0.0191650390625,-0.6641221374045801,0.0916030534351145,-0.015267175572519083
1646443392059.7944,-0.00311279296875,0.12030029296875,0.018798828125,-0.6793893129770993,0.07633587786259542,-0.022900763358778626
1646443392060.3545,-0.00311279296875,0.12030029296875,0.018798828125,-0.6793893129770993,0.07633587786259542,-0.022900763358778626
1646443392060.913,-0.0028076171875,0.120361328125,0.01904296875,-0.7022900763358778,0.07633587786259542,-0.015267175572519083
1646443392061.4697,-0.002685546875,0.12066650390625,0.0191650390625,-0.7022900763358778,0.08396946564885496,0.0
1646443392062.0225,-0.002685546875,0.12066650390625,0.0191650390625,-0.7022900763358778,0.08396946564885496,0.0
1646443392062.5732,-0.00213623046875,0.12091064453125,0.02001953125,-0.7099236641221374,0.08396946564885496,0.015267175572519083
1646443392063.1313,-0.00213623046875,0.12091064453125,0.02001953125,-0.7099236641221374,0.08396946564885496,0.015267175572519083
1646443392063.6892,-0.0023193359375,0.12127685546875,0.01959228515625,-0.7022900763358778,0.07633587786259542,0.030534351145038167
1646443392064.249,-0.0023193359375,0.12127685546875,0.01959228515625,-0.7022900763358778,0.07633587786259542,0.030534351145038167
1646443392064.8066,-0.002197265625,0.12054443359375,0.01995849609375,-0.7022900763358778,0.07633587786259542,0.022900763358778626
1646443392065.3657,-0.002197265625,0.12054443359375,0.01995849609375,-0.7022900763358778,0.07633587786259542,0.022900763358778626
1646443392065.9236,-0.0029296875,0.12060546875,0.0198974609375,-0.7099236641221374,0.08396946564885496,0.0
1646443392066.4756,-0.0029296875,0.12042236328125,0.02008056640625,-0.7251908396946565,0.07633587786259542,0.007633587786259542
1646443392067.0327,-0.0029296875,0.12042236328125,0.02008056640625,-0.7251908396946565,0.07633587786259542,0.007633587786259542
1646443392067.5908,-0.0029296875,0.12078857421875,0.0198974609375,-0.7404580152671756,0.0916030534351145,0.022900763358778626
1646443392068.1472,-0.0029296875,0.12078857421875,0.0198974609375,-0.7404580152671756,0.0916030534351145,0.022900763358778626
1646443392068.706,-0.00238037109375,0.121337890625,0.02008056640625,-0.732824427480916,0.10687022900763359,0.03816793893129771
1646443392069.2634,-0.00238037109375,0.121337890625,0.02008056640625,-0.732824427480916,0.10687022900763359,0.03816793893129771
1646443392069.8232,-0.00274658203125,0.12158203125,0.02069091796875,-0.732824427480916,0.10687022900763359,0.03816793893129771
1646443392070.3804,-0.00274658203125,0.12158203125,0.02069091796875,-0.732824427480916,0.10687022900763359,0.03816793893129771
1646443392070.938,-0.00262451171875,0.1217041015625,0.01971435546875,-0.7480916030534351,0.11450381679389313,0.022900763358778626
1646443392071.4976,-0.00286865234375,0.12127685546875,0.0203857421875,-0.7404580152671756,0.12213740458015267,0.03816793893129771
1646443392072.0562,-0.00286865234375,0.12127685546875,0.0203857421875,-0.7404580152671756,0.12213740458015267,0.03816793893129771
1646443392072.616,-0.00311279296875,0.12127685546875,0.0205078125,-0.732824427480916,0.1297709923664122,0.05343511450381679
1646443392073.1724,-0.00311279296875,0.12127685546875,0.0205078125,-0.732824427480916,0.1297709923664122,0.05343511450381679
1646443392073.73,-0.0028076171875,0.12152099609375,0.01934814453125,-0.7404580152671756,0.09923664122137404,0.06870229007633588
1646443392074.2869,-0.0028076171875,0.12152099609375,0.01934814453125,-0.7404580152671756,0.09923664122137404,0.06870229007633588
1646443392074.8457,-0.00164794921875,0.121826171875,0.0191650390625,-0.7480916030534351,0.09923664122137404,0.06870229007633588
1646443392075.4048,-0.00164794921875,0.121826171875,0.0191650390625,-0.7480916030534351,0.09923664122137404,0.06870229007633588
1646443392075.9644,-0.00250244140625,0.12103271484375,0.0203857421875,-0.7709923664122137,0.10687022900763359,0.06870229007633588
1646443392076.5225,-0.00244140625,0.12115478515625,0.0205078125,-0.7786259541984732,0.12213740458015267,0.08396946564885496
1646443392077.079,-0.00244140625,0.12115478515625,0.0205078125,-0.7786259541984732,0.12213740458015267,0.08396946564885496
1646443392077.635,-0.003173828125,0.12103271484375,0.02056884765625,-0.7786259541984732,0.1450381679389313,0.0916030534351145
1646443392078.1926,-0.003173828125,0.12103271484375,0.02056884765625,-0.7786259541984732,0.1450381679389313,0.0916030534351145
1646443392078.7505,-0.00274658203125,0.1209716796875,0.01934814453125,-0.7938931297709924,0.12213740458015267,0.0916030534351145
1646443392079.3083,-0.00274658203125,0.1209716796875,0.01934814453125,-0.7938931297709924,0.12213740458015267,0.0916030534351145
1646443392079.8667,-0.0025634765625,0.12158203125,0.0198974609375,-0.8015267175572519,0.11450381679389313,0.0916030534351145
1646443392080.4226,-0.0025634765625,0.12158203125,0.0198974609375,-0.8015267175572519,0.11450381679389313,0.0916030534351145
1646443392080.9807,-0.003173828125,0.12164306640625,0.01934814453125,-0.8091603053435115,0.12213740458015267,0.08396946564885496
1646443392081.5398,-0.00244140625,0.12188720703125,0.01947021484375,-0.8015267175572519,0.12213740458015267,0.08396946564885496
1646443392082.0999,-0.00244140625,0.12188720703125,0.01947021484375,-0.8015267175572519,0.12213740458015267,0.08396946564885496
1646443392082.6572,-0.0023193359375,0.12188720703125,0.01885986328125,-0.7862595419847328,0.13740458015267176,0.09923664122137404
1646443392083.2166,-0.0023193359375,0.12188720703125,0.01885986328125,-0.7862595419847328,0.13740458015267176,0.09923664122137404
1646443392083.775,-0.00323486328125,0.12078857421875,0.01873779296875,-0.7938931297709924,0.1450381679389313,0.11450381679389313
1646443392084.334,-0.00323486328125,0.12078857421875,0.01873779296875,-0.7938931297709924,0.1450381679389313,0.11450381679389313
1646443392084.8928,-0.00238037109375,0.12103271484375,0.019775390625,-0.8091603053435115,0.16030534351145037,0.12213740458015267
1646443392085.4524,-0.00238037109375,0.12103271484375,0.019775390625,-0.8091603053435115,0.16030534351145037,0.12213740458015267
1646443392086.011,-0.00177001953125,0.119873046875,0.0206298828125,-0.8244274809160306,0.15267175572519084,0.12213740458015267
1646443392086.5698,-0.00189208984375,0.12109375,0.01934814453125,-0.8320610687022901,0.13740458015267176,0.10687022900763359
1646443392087.128,-0.00189208984375,0.12109375,0.01934814453125,-0.8320610687022901,0.13740458015267176,0.10687022900763359
1646443392087.6848,-0.0020751953125,0.12103271484375,0.02056884765625,-0.8396946564885496,0.13740458015267176,0.10687022900763359
1646443392088.3623,-0.0020751953125,0.12103271484375,0.02056884765625,-0.8396946564885496,0.13740458015267176,0.10687022900763359
1646443392088.9258,-0.00189208984375,0.12091064453125,0.01995849609375,-0.8396946564885496,0.13740458015267176,0.12213740458015267
1646443392089.489,-0.0018310546875,0.12139892578125,0.01971435546875,-0.8396946564885496,0.11450381679389313,0.11450381679389313
1646443392090.0496,-0.0018310546875,0.12139892578125,0.01971435546875,-0.8396946564885496,0.11450381679389313,0.11450381679389313
1646443392090.6108,-0.0013427734375,0.12054443359375,0.0196533203125,-0.8396946564885496,0.11450381679389313,0.12213740458015267
1646443392091.171,-0.0013427734375,0.12054443359375,0.0196533203125,-0.8396946564885496,0.11450381679389313,0.12213740458015267
1646443392091.7607,-0.00152587890625,0.12060546875,0.019775390625,-0.8473282442748091,0.13740458015267176,0.1297709923664122
1646443392092.3196,-0.00152587890625,0.12060546875,0.019775390625,-0.8473282442748091,0.13740458015267176,0.1297709923664122
1646443392092.8782,-0.00128173828125,0.1212158203125,0.0205078125,-0.8473282442748091,0.15267175572519084,0.11450381679389313
1646443392093.438,-0.00128173828125,0.1212158203125,0.0205078125,-0.8473282442748091,0.15267175572519084,0.11450381679389313
1646443392093.9966,-0.00189208984375,0.12091064453125,0.02056884765625,-0.8625954198473282,0.15267175572519084,0.09923664122137404
1646443392094.5564,-0.00213623046875,0.12139892578125,0.01922607421875,-0.8625954198473282,0.15267175572519084,0.10687022900763359
1646443392095.1152,-0.00213623046875,0.12139892578125,0.01922607421875,-0.8625954198473282,0.15267175572519084,0.10687022900763359
1646443392095.6758,-0.0015869140625,0.12115478515625,0.01995849609375,-0.8854961832061069,0.16030534351145037,0.12213740458015267
1646443392096.2356,-0.0015869140625,0.12115478515625,0.01995849609375,-0.8854961832061069,0.16030534351145037,0.12213740458015267
1646443392096.7966,-0.00140380859375,0.12109375,0.0194091796875,-0.9083969465648855,0.1450381679389313,0.11450381679389313
1646443392097.3538,-0.00140380859375,0.12109375,0.0194091796875,-0.9083969465648855,0.1450381679389313,0.11450381679389313
1646443392097.9128,-0.00030517578125,0.12127685546875,0.01947021484375,-0.9236641221374046,0.10687022900763359,0.1297709923664122
1646443392098.4731,-0.001220703125,0.12188720703125,0.01885986328125,-0.9389312977099237,0.0916030534351145,0.10687022900763359
1646443392099.0327,-0.001220703125,0.12188720703125,0.01885986328125,-0.9389312977099237,0.0916030534351145,0.10687022900763359
1646443392099.5906,-0.001220703125,0.12054443359375,0.01934814453125,-0.9541984732824428,0.11450381679389313,0.10687022900763359
1646443392100.1506,-0.001220703125,0.12054443359375,0.01934814453125,-0.9541984732824428,0.11450381679389313,0.10687022900763359
1646443392100.7102,-0.00079345703125,0.121337890625,0.02020263671875,-0.9389312977099237,0.13740458015267176,0.10687022900763359
1646443392101.2737,-0.00079345703125,0.121337890625,0.02020263671875,-0.9389312977099237,0.13740458015267176,0.10687022900763359
1646443392101.8328,-0.001220703125,0.12152099609375,0.02020263671875,-0.9236641221374046,0.1450381679389313,0.11450381679389313
1646443392102.3926,-0.001220703125,0.12152099609375,0.02020263671875,-0.9236641221374046,0.1450381679389313,0.11450381679389313
1646443392102.9512,0.00079345703125,0.121337890625,0.020263671875,-0.8931297709923665,0.17557251908396945,0.11450381679389313
1646443392103.5085,0.003662109375,0.12176513671875,0.02001953125,-0.916030534351145,0.22900763358778625,0.05343511450381679
1646443392104.0652,0.003662109375,0.12176513671875,0.02001953125,-0.916030534351145,0.22900763358778625,0.05343511450381679
1646443392104.6206,0.0057373046875,0.12274169921875,0.01971435546875,-0.9389312977099237,0.2595419847328244,0.007633587786259542
1646443392105.1792,0.0057373046875,0.12274169921875,0.01971435546875,-0.9389312977099237,0.2595419847328244,0.007633587786259542
1646443392105.737,0.0068359375,0.1217041015625,0.019287109375,-0.9465648854961832,0.29770992366412213,-0.007633587786259542
1646443392106.294,0.0068359375,0.1217041015625,0.019287109375,-0.9465648854961832,0.29770992366412213,-0.007633587786259542
1646443392106.851,0.0072021484375,0.12109375,0.0177001953125,-0.9770992366412213,0.2748091603053435,-0.05343511450381679
1646443392107.407,0.0072021484375,0.12109375,0.0177001953125,-0.9770992366412213,0.2748091603053435,-0.05343511450381679
1646443392107.9624,0.0087890625,0.12158203125,0.0166015625,-1.0,0.2595419847328244,-0.11450381679389313
1646443392108.5117,0.009765625,0.1214599609375,0.01556396484375,-0.9923664122137404,0.25190839694656486,-0.19083969465648856
1646443392109.0696,0.009765625,0.1214599609375,0.01556396484375,-0.9923664122137404,0.25190839694656486,-0.19083969465648856
1646443392109.628,0.01129150390625,0.12176513671875,0.017333984375,-1.0,0.2366412213740458,-0.2595419847328244
1646443392110.1804,0.01129150390625,0.12176513671875,0.017333984375,-1.0,0.2366412213740458,-0.2595419847328244
1646443392110.733,0.01202392578125,0.12115478515625,0.018310546875,-1.0381679389312977,0.22900763358778625,-0.32061068702290074
1646443392111.2935,0.01202392578125,0.12115478515625,0.018310546875,-1.0381679389312977,0.22900763358778625,-0.32061068702290074
1646443392111.8513,0.01336669921875,0.12109375,0.019287109375,-1.0687022900763359,0.21374045801526717,-0.3969465648854962
1646443392112.4075,0.01336669921875,0.12109375,0.019287109375,-1.0687022900763359,0.21374045801526717,-0.3969465648854962
1646443392112.9636,0.01348876953125,0.1209716796875,0.01690673828125,-1.0458015267175573,0.20610687022900764,-0.48091603053435117
1646443392113.5247,0.01300048828125,0.12005615234375,0.0159912109375,-1.0458015267175573,0.183206106870229,-0.5877862595419847
1646443392114.0823,0.01300048828125,0.12005615234375,0.0159912109375,-1.0458015267175573,0.183206106870229,-0.5877862595419847
1646443392114.6416,0.01202392578125,0.11871337890625,0.01715087890625,-1.0687022900763359,0.16793893129770993,-0.6641221374045801
1646443392115.201,0.01202392578125,0.11871337890625,0.01715087890625,-1.0687022900763359,0.16793893129770993,-0.6641221374045801
1646443392115.7607,0.01092529296875,0.11822509765625,0.01751708984375,-1.083969465648855,0.15267175572519084,-0.7175572519083969
1646443392116.3198,0.01092529296875,0.11822509765625,0.01751708984375,-1.083969465648855,0.15267175572519084,-0.7175572519083969
1646443392116.879,0.0101318359375,0.1173095703125,0.01715087890625,-1.083969465648855,0.15267175572519084,-0.7786259541984732
1646443392117.4368,0.0101318359375,0.1173095703125,0.01715087890625,-1.083969465648855,0.15267175572519084,-0.7786259541984732
1646443392117.996,0.0089111328125,0.11651611328125,0.0172119140625,-1.083969465648855,0.16030534351145037,-0.8244274809160306
1646443392118.5542,0.007080078125,0.11529541015625,0.0185546875,-1.1145038167938932,0.183206106870229,-0.8625954198473282
1646443392119.1108,0.007080078125,0.11529541015625,0.0185546875,-1.1145038167938932,0.183206106870229,-0.8625954198473282
1646443392119.6663,0.0054931640625,0.1143798828125,0.01812744140625,-1.1297709923664123,0.183206106870229,-0.9007633587786259
1646443392120.224,0.0054931640625,0.1143798828125,0.01812744140625,-1.1297709923664123,0.183206106870229,-0.9007633587786259
1646443392120.7815,0.00494384765625,0.11358642578125,0.0186767578125,-1.1526717557251909,0.1984732824427481,-0.9541984732824428
1646443392121.3408,0.00494384765625,0.11358642578125,0.0186767578125,-1.1526717557251909,0.1984732824427481,-0.9541984732824428
1646443392121.9004,0.00482177734375,0.11334228515625,0.01824951171875,-1.183206106870229,0.21374045801526717,-0.9847328244274809
1646443392122.46,0.0032958984375,0.11297607421875,0.0179443359375,-1.183206106870229,0.20610687022900764,-0.9923664122137404
1646443392123.018,0.0032958984375,0.11297607421875,0.0179443359375,-1.183206106870229,0.20610687022900764,-0.9923664122137404
1646443392123.5752,0.00189208984375,0.11260986328125,0.0179443359375,-1.1984732824427482,0.183206106870229,-1.0076335877862594
1646443392124.1357,0.00189208984375,0.11260986328125,0.0179443359375,-1.1984732824427482,0.183206106870229,-1.0076335877862594
1646443392124.8306,0.0020751953125,0.11334228515625,0.017822265625,-1.2290076335877862,0.16793893129770993,-1.0229007633587786
1646443392125.3955,0.0020751953125,0.11334228515625,0.017822265625,-1.2290076335877862,0.16793893129770993,-1.0229007633587786
1646443392125.9546,0.0015869140625,0.11328125,0.01690673828125,-1.251908396946565,0.1450381679389313,-1.0458015267175573
1646443392126.5117,0.00054931640625,0.11444091796875,0.016357421875,-1.2595419847328244,0.11450381679389313,-1.0534351145038168
1646443392127.072,0.00054931640625,0.11444091796875,0.016357421875,-1.2595419847328244,0.11450381679389313,-1.0534351145038168
1646443392127.631,-6.103515625e-05,0.115234375,0.0174560546875,-1.282442748091603,0.10687022900763359,-1.0610687022900764
1646443392128.201,-6.103515625e-05,0.115234375,0.0174560546875,-1.282442748091603,0.10687022900763359,-1.0610687022900764
1646443392128.7637,0.0,0.11572265625,0.01837158203125,-1.3129770992366412,0.0916030534351145,-1.0687022900763359
1646443392129.318,0.0,0.11572265625,0.01837158203125,-1.3129770992366412,0.0916030534351145,-1.0687022900763359
1646443392129.87,-0.00067138671875,0.11578369140625,0.018310546875,-1.3435114503816794,0.061068702290076333,-1.0763358778625953
1646443392130.4326,-0.00067138671875,0.11578369140625,0.018310546875,-1.3435114503816794,0.061068702290076333,-1.0763358778625953
1646443392130.9934,-0.0018310546875,0.11688232421875,0.01837158203125,-1.3740458015267176,0.04580152671755725,-1.0763358778625953
1646443392131.5552,-0.00201416015625,0.117919921875,0.0191650390625,-1.381679389312977,0.03816793893129771,-1.0763358778625953
1646443392132.1135,-0.00201416015625,0.117919921875,0.0191650390625,-1.381679389312977,0.03816793893129771,-1.0763358778625953
1646443392132.673,-0.00244140625,0.11871337890625,0.0196533203125,-1.3893129770992367,0.03816793893129771,-1.0687022900763359
1646443392133.2307,-0.00244140625,0.11871337890625,0.0196533203125,-1.3893129770992367,0.03816793893129771,-1.0687022900763359
1646443392133.79,-0.00286865234375,0.12017822265625,0.01922607421875,-1.4198473282442747,0.04580152671755725,-1.0687022900763359
1646443392134.35,-0.00286865234375,0.12017822265625,0.01922607421875,-1.4198473282442747,0.04580152671755725,-1.0687022900763359
1646443392134.909,-0.00244140625,0.12078857421875,0.02032470703125,-1.465648854961832,0.022900763358778626,-1.0687022900763359
1646443392135.4675,-0.003173828125,0.121337890625,0.01959228515625,-1.5114503816793894,0.022900763358778626,-1.0458015267175573
1646443392136.0266,-0.003173828125,0.121337890625,0.01959228515625,-1.5114503816793894,0.022900763358778626,-1.0458015267175573
1646443392136.5864,-0.004150390625,0.1221923828125,0.0189208984375,-1.5190839694656488,0.030534351145038167,-1.0229007633587786
1646443392137.145,-0.004150390625,0.1221923828125,0.0189208984375,-1.5190839694656488,0.030534351145038167,-1.0229007633587786
1646443392137.7048,-0.00433349609375,0.12353515625,0.01959228515625,-1.5190839694656488,0.022900763358778626,-1.015267175572519
1646443392138.2642,-0.00433349609375,0.12353515625,0.01959228515625,-1.5190839694656488,0.022900763358778626,-1.015267175572519
1646443392138.8257,-0.0050048828125,0.12420654296875,0.019775390625,-1.5419847328244274,-0.007633587786259542,-1.0076335877862594
1646443392139.3916,-0.0050048828125,0.12420654296875,0.019775390625,-1.5419847328244274,-0.007633587786259542,-1.0076335877862594
1646443392139.9531,-0.00518798828125,0.1259765625,0.02032470703125,-1.549618320610687,-0.022900763358778626,-1.0
1646443392140.5078,-0.00543212890625,0.12591552734375,0.0213623046875,-1.5801526717557253,-0.05343511450381679,-0.9618320610687023
1646443392141.0686,-0.00543212890625,0.12591552734375,0.0213623046875,-1.5801526717557253,-0.05343511450381679,-0.9618320610687023
1646443392141.6292,-0.005859375,0.12652587890625,0.0218505859375,-1.6030534351145038,-0.061068702290076333,-0.9236641221374046
1646443392142.1892,-0.005859375,0.12652587890625,0.0218505859375,-1.6030534351145038,-0.061068702290076333,-0.9236641221374046
1646443392142.7478,-0.00634765625,0.1263427734375,0.021484375,-1.618320610687023,-0.07633587786259542,-0.9007633587786259
1646443392143.306,-0.00634765625,0.1263427734375,0.021484375,-1.618320610687023,-0.07633587786259542,-0.9007633587786259
1646443392143.8628,-0.00653076171875,0.12640380859375,0.0218505859375,-1.6259541984732824,-0.08396946564885496,-0.8854961832061069
1646443392144.4219,-0.00653076171875,0.12640380859375,0.0218505859375,-1.6259541984732824,-0.08396946564885496,-0.8854961832061069
1646443392144.9824,-0.00701904296875,0.1263427734375,0.02264404296875,-1.633587786259542,-0.08396946564885496,-0.8702290076335878
1646443392145.5422,-0.00714111328125,0.1260986328125,0.022705078125,-1.618320610687023,-0.08396946564885496,-0.8625954198473282
1646443392146.1016,-0.00714111328125,0.1260986328125,0.022705078125,-1.618320610687023,-0.08396946564885496,-0.8625954198473282
1646443392146.66,-0.00665283203125,0.12603759765625,0.0216064453125,-1.6259541984732824,-0.0916030534351145,-0.816793893129771
1646443392147.2197,-0.00665283203125,0.12603759765625,0.0216064453125,-1.6259541984732824,-0.0916030534351145,-0.816793893129771
1646443392147.78,-0.00714111328125,0.125732421875,0.0213623046875,-1.633587786259542,-0.08396946564885496,-0.7862595419847328
1646443392148.3381,-0.00714111328125,0.125732421875,0.0213623046875,-1.633587786259542,-0.08396946564885496,-0.7862595419847328
1646443392148.897,-0.0064697265625,0.12518310546875,0.0218505859375,-1.6030534351145038,-0.015267175572519083,-0.7480916030534351
1646443392149.4578,-0.00555419921875,0.12432861328125,0.022216796875,-1.5725190839694656,-0.022900763358778626,-0.732824427480916
1646443392150.018,-0.00555419921875,0.12432861328125,0.022216796875,-1.5725190839694656,-0.022900763358778626,-0.732824427480916
1646443392150.5781,-0.0050048828125,0.12420654296875,0.023193359375,-1.5648854961832062,-0.05343511450381679,-0.7022900763358778
1646443392151.138,-0.0050048828125,0.12420654296875,0.023193359375,-1.5648854961832062,-0.05343511450381679,-0.7022900763358778
1646443392151.7278,-0.00274658203125,0.1241455078125,0.0238037109375,-1.549618320610687,-0.06870229007633588,-0.6793893129770993
1646443392152.2888,-0.00274658203125,0.1241455078125,0.0238037109375,-1.549618320610687,-0.06870229007633588,-0.6793893129770993
1646443392152.8484,0.00048828125,0.1239013671875,0.0250244140625,-1.5267175572519085,-0.09923664122137404,-0.6412213740458015
1646443392153.4094,0.00048828125,0.1239013671875,0.0250244140625,-1.5267175572519085,-0.09923664122137404,-0.6412213740458015
1646443392153.9702,0.00311279296875,0.12469482421875,0.0277099609375,-1.4885496183206106,-0.17557251908396945,-0.6183206106870229
1646443392154.5312,0.00372314453125,0.12310791015625,0.02789306640625,-1.4274809160305344,-0.22137404580152673,-0.6030534351145038
1646443392155.091,0.00372314453125,0.12310791015625,0.02789306640625,-1.4274809160305344,-0.22137404580152673,-0.6030534351145038
1646443392155.6514,0.00323486328125,0.121826171875,0.02825927734375,-1.3282442748091603,-0.25190839694656486,-0.5877862595419847
1646443392156.2112,0.00323486328125,0.121826171875,0.02825927734375,-1.3282442748091603,-0.25190839694656486,-0.5877862595419847
1646443392156.7717,0.00164794921875,0.12188720703125,0.0291748046875,-1.1908396946564885,-0.26717557251908397,-0.5572519083969466
1646443392157.3323,0.00164794921875,0.12188720703125,0.0291748046875,-1.1908396946564885,-0.26717557251908397,-0.5572519083969466
1646443392157.8938,0.00128173828125,0.12176513671875,0.0286865234375,-1.0687022900763359,-0.2748091603053435,-0.5343511450381679
1646443392158.4534,0.00030517578125,0.12164306640625,0.02606201171875,-1.015267175572519,-0.3435114503816794,-0.5267175572519084
1646443392159.013,0.00030517578125,0.12164306640625,0.02606201171875,-1.015267175572519,-0.3435114503816794,-0.5267175572519084
1646443392159.5718,0.0001220703125,0.12152099609375,0.0240478515625,-1.0229007633587786,-0.4732824427480916,-0.5267175572519084
1646443392160.132,0.0001220703125,0.12152099609375,0.0240478515625,-1.0229007633587786,-0.4732824427480916,-0.5267175572519084
1646443392160.842,0.00103759765625,0.1214599609375,0.02215576171875,-1.0458015267175573,-0.648854961832061,-0.5114503816793893
1646443392161.407,0.00103759765625,0.1214599609375,0.02215576171875,-1.0458015267175573,-0.648854961832061,-0.5114503816793893
1646443392161.969,0.0015869140625,0.12237548828125,0.02105712890625,-1.0534351145038168,-0.8320610687022901,-0.5190839694656488
1646443392162.5295,0.001953125,0.1219482421875,0.022705078125,-1.083969465648855,-0.9694656488549618,-0.5190839694656488
1646443392163.0884,0.001953125,0.1219482421875,0.022705078125,-1.083969465648855,-0.9694656488549618,-0.5190839694656488
1646443392163.6462,-0.0020751953125,0.12109375,0.02398681640625,-1.0916030534351144,-1.1297709923664123,-0.5038167938931297
1646443392164.2058,-0.0020751953125,0.12109375,0.02398681640625,-1.0916030534351144,-1.1297709923664123,-0.5038167938931297
1646443392164.7634,-0.01202392578125,0.12042236328125,0.0223388671875,-1.1450381679389312,-1.3053435114503817,-0.5038167938931297
1646443392165.3242,-0.01202392578125,0.12042236328125,0.0223388671875,-1.1450381679389312,-1.3053435114503817,-0.5038167938931297
1646443392165.8857,-0.017333984375,0.1217041015625,0.01513671875,-1.2671755725190839,-1.3587786259541985,-0.4961832061068702
1646443392166.4436,-0.017333984375,0.1217041015625,0.01513671875,-1.2671755725190839,-1.3587786259541985,-0.4961832061068702
1646443392167.004,-0.01800537109375,0.12322998046875,0.00738525390625,-1.4198473282442747,-1.2671755725190839,-0.4961832061068702
1646443392167.564,-0.0145263671875,0.12298583984375,0.01068115234375,-1.5877862595419847,-1.2595419847328244,-0.48854961832061067
1646443392168.126,-0.0145263671875,0.12298583984375,0.01068115234375,-1.5877862595419847,-1.2595419847328244,-0.48854961832061067
1646443392168.6865,-0.00909423828125,0.12200927734375,0.0159912109375,-1.7099236641221374,-1.3740458015267176,-0.4732824427480916
1646443392169.248,-0.00909423828125,0.12200927734375,0.0159912109375,-1.7099236641221374,-1.3740458015267176,-0.4732824427480916
1646443392169.8071,-0.00494384765625,0.1209716796875,0.02117919921875,-1.7404580152671756,-1.4045801526717556,-0.4351145038167939
1646443392170.3687,-0.00494384765625,0.1209716796875,0.02117919921875,-1.7404580152671756,-1.4045801526717556,-0.4351145038167939
1646443392170.9292,-0.001220703125,0.120849609375,0.029052734375,-1.6641221374045803,-1.2290076335877862,-0.3816793893129771
1646443392171.4895,0.00091552734375,0.11944580078125,0.036865234375,-1.5190839694656488,-0.9923664122137404,-0.366412213740458
1646443392172.0486,0.00091552734375,0.11944580078125,0.036865234375,-1.5190839694656488,-0.9923664122137404,-0.366412213740458
1646443392172.6077,0.00177001953125,0.1190185546875,0.03973388671875,-1.4198473282442747,-0.7862595419847328,-0.3435114503816794
1646443392173.1675,0.00177001953125,0.1190185546875,0.03973388671875,-1.4198473282442747,-0.7862595419847328,-0.3435114503816794
1646443392173.7278,0.00054931640625,0.11920166015625,0.03521728515625,-1.3435114503816794,-0.5801526717557252,-0.32061068702290074
1646443392174.2888,0.00054931640625,0.11920166015625,0.03521728515625,-1.3435114503816794,-0.5801526717557252,-0.32061068702290074
1646443392174.8506,-0.00115966796875,0.12091064453125,0.02777099609375,-1.2900763358778626,-0.45038167938931295,-0.31297709923664124
1646443392175.4146,-0.00115966796875,0.12091064453125,0.02777099609375,-1.2900763358778626,-0.45038167938931295,-0.31297709923664124
1646443392175.9768,-0.00347900390625,0.12176513671875,0.021728515625,-1.2442748091603053,-0.44274809160305345,-0.32061068702290074
1646443392176.5388,-0.00482177734375,0.12347412109375,0.0181884765625,-1.183206106870229,-0.48091603053435117,-0.32061068702290074
1646443392177.0986,-0.00482177734375,0.12347412109375,0.0181884765625,-1.183206106870229,-0.48091603053435117,-0.32061068702290074
1646443392177.66,-0.00469970703125,0.123046875,0.016357421875,-1.2671755725190839,-0.5267175572519084,-0.31297709923664124
1646443392178.2178,-0.00469970703125,0.123046875,0.016357421875,-1.2671755725190839,-0.5267175572519084,-0.31297709923664124
1646443392178.7773,-0.00439453125,0.12225341796875,0.0185546875,-1.4122137404580153,-0.6641221374045801,-0.32061068702290074
1646443392179.3367,-0.00439453125,0.12225341796875,0.0185546875,-1.4122137404580153,-0.6641221374045801,-0.32061068702290074
1646443392179.8962,-0.00494384765625,0.12213134765625,0.01763916015625,-1.5267175572519085,-0.7786259541984732,-0.31297709923664124
1646443392180.4565,-0.00439453125,0.12158203125,0.02056884765625,-1.5267175572519085,-0.8702290076335878,-0.29770992366412213
1646443392181.0156,-0.00439453125,0.12158203125,0.02056884765625,-1.5267175572519085,-0.8702290076335878,-0.29770992366412213
1646443392181.5754,0.00103759765625,0.125244140625,0.021240234375,-1.7709923664122138,-0.8549618320610687,-0.2748091603053435
1646443392182.1343,0.00103759765625,0.125244140625,0.021240234375,-1.7709923664122138,-0.8549618320610687,-0.2748091603053435
1646443392182.695,-0.00225830078125,0.11248779296875,0.01531982421875,-3.1374045801526718,-1.465648854961832,-0.2824427480916031
1646443392183.255,-0.00225830078125,0.11248779296875,0.01531982421875,-3.1374045801526718,-1.465648854961832,-0.2824427480916031
1646443392183.8164,-0.00213623046875,0.11309814453125,0.0191650390625,-3.7099236641221376,-2.2595419847328246,-0.35877862595419846
1646443392184.3767,-0.00213623046875,0.11309814453125,0.0191650390625,-3.7099236641221376,-2.2595419847328246,-0.35877862595419846
1646443392184.939,-0.004150390625,0.11761474609375,0.017333984375,-3.2061068702290076,-1.916030534351145,-0.3816793893129771
1646443392185.497,0.00054931640625,0.11993408203125,0.0362548828125,-1.900763358778626,-1.6870229007633588,-0.3816793893129771
1646443392186.0576,0.00054931640625,0.11993408203125,0.0362548828125,-1.900763358778626,-1.6870229007633588,-0.3816793893129771
1646443392186.6172,0.00018310546875,0.11920166015625,0.03497314453125,-0.9007633587786259,-1.0,-0.3435114503816794
1646443392187.172,0.00018310546875,0.11920166015625,0.03497314453125,-0.9007633587786259,-1.0,-0.3435114503816794
1646443392187.725,0.00018310546875,0.11785888671875,0.05181884765625,-0.6106870229007634,-0.3816793893129771,-0.2748091603053435
1646443392188.285,0.00018310546875,0.11785888671875,0.05181884765625,-0.6106870229007634,-0.3816793893129771,-0.2748091603053435
1646443392188.8438,-0.006103515625,0.1170654296875,0.0555419921875,-0.8396946564885496,-0.35877862595419846,-0.24427480916030533
1646443392189.4036,-0.006103515625,0.1170654296875,0.0555419921875,-0.8396946564885496,-0.35877862595419846,-0.24427480916030533
1646443392189.9631,-0.00299072265625,0.12445068359375,0.0185546875,-0.5038167938931297,0.22137404580152673,-0.21374045801526717
1646443392190.5227,0.00518798828125,0.12841796875,0.00787353515625,-0.05343511450381679,0.7709923664122137,-0.20610687022900764
1646443392191.0823,0.00518798828125,0.12841796875,0.00787353515625,-0.05343511450381679,0.7709923664122137,-0.20610687022900764
1646443392191.6404,0.00244140625,0.12860107421875,0.019775390625,-0.13740458015267176,0.31297709923664124,-0.2595419847328244
1646443392192.1997,0.00244140625,0.12860107421875,0.019775390625,-0.13740458015267176,0.31297709923664124,-0.2595419847328244
1646443392192.7566,-0.0029296875,0.13140869140625,-0.0018310546875,-0.46564885496183206,-0.3969465648854962,-0.31297709923664124
1646443392193.319,-0.0029296875,0.13140869140625,-0.0018310546875,-0.46564885496183206,-0.3969465648854962,-0.31297709923664124
1646443392193.8792,-0.00482177734375,0.12750244140625,0.01776123046875,-1.1603053435114503,-0.648854961832061,-0.3511450381679389
1646443392194.4402,-0.00482177734375,0.12750244140625,0.01776123046875,-1.1603053435114503,-0.648854961832061,-0.3511450381679389
1646443392195.001,-0.00341796875,0.12457275390625,0.04083251953125,-2.0076335877862594,-0.7557251908396947,-0.37404580152671757
1646443392195.561,-0.00018310546875,0.1234130859375,0.025634765625,-2.312977099236641,-0.9847328244274809,-0.4198473282442748
1646443392196.1196,-0.00018310546875,0.1234130859375,0.025634765625,-2.312977099236641,-0.9847328244274809,-0.4198473282442748
1646443392196.7944,-0.00018310546875,0.1229248046875,0.01458740234375,-2.0381679389312977,-1.282442748091603,-0.46564885496183206
1646443392197.36,-0.00018310546875,0.1229248046875,0.01458740234375,-2.0381679389312977,-1.282442748091603,-0.46564885496183206
1646443392197.9219,-0.0008544921875,0.125,0.02154541015625,-1.7938931297709924,-1.5190839694656488,-0.45038167938931295
1646443392198.4824,-0.0008544921875,0.12646484375,0.01971435546875,-1.4961832061068703,-1.3740458015267176,-0.4122137404580153
1646443392199.0422,-0.0008544921875,0.12646484375,0.01971435546875,-1.4961832061068703,-1.3740458015267176,-0.4122137404580153
1646443392199.6038,-0.0006103515625,0.12469482421875,0.022705078125,-1.0229007633587786,-0.816793893129771,-0.3893129770992366
1646443392200.1638,-0.0006103515625,0.12469482421875,0.022705078125,-1.0229007633587786,-0.816793893129771,-0.3893129770992366
1646443392200.725,0.00079345703125,0.12115478515625,0.03717041015625,-0.8320610687022901,-0.44274809160305345,-0.4122137404580153
1646443392201.288,0.00079345703125,0.12115478515625,0.03717041015625,-0.8320610687022901,-0.44274809160305345,-0.4122137404580153
1646443392201.8499,0.00250244140625,0.12030029296875,0.0352783203125,-0.8931297709923665,-0.3511450381679389,-0.40458015267175573
1646443392202.4084,0.00250244140625,0.12030029296875,0.0352783203125,-0.8931297709923665,-0.3511450381679389,-0.40458015267175573
1646443392202.969,0.0023193359375,0.11944580078125,0.0247802734375,-0.9236641221374046,-0.4122137404580153,-0.4122137404580153
1646443392203.5269,0.00177001953125,0.1199951171875,0.022705078125,-0.7938931297709924,-0.4732824427480916,-0.4351145038167939
1646443392204.0857,0.00177001953125,0.1199951171875,0.022705078125,-0.7938931297709924,-0.4732824427480916,-0.4351145038167939
1646443392204.6448,0.0010986328125,0.11907958984375,0.02972412109375,-0.7099236641221374,-0.3816793893129771,-0.45038167938931295
1646443392205.2056,0.0010986328125,0.11907958984375,0.02972412109375,-0.7099236641221374,-0.3816793893129771,-0.45038167938931295
1646443392205.7676,0.0035400390625,0.1177978515625,0.03546142578125,-0.816793893129771,-0.4580152671755725,-0.45038167938931295
1646443392206.3264,0.0035400390625,0.1177978515625,0.03546142578125,-0.816793893129771,-0.4580152671755725,-0.45038167938931295
1646443392206.886,0.00347900390625,0.1190185546875,0.026123046875,-0.9083969465648855,-0.6793893129770993,-0.4732824427480916
1646443392207.4434,0.00347900390625,0.1190185546875,0.026123046875,-0.9083969465648855,-0.6793893129770993,-0.4732824427480916
1646443392208.0017,0.00299072265625,0.12078857421875,0.01324462890625,-0.7251908396946565,-0.8625954198473282,-0.5190839694656488
1646443392208.5603,0.00250244140625,0.121337890625,0.012939453125,-0.5343511450381679,-0.9236641221374046,-0.5572519083969466
1646443392209.1191,0.00250244140625,0.121337890625,0.012939453125,-0.5343511450381679,-0.9236641221374046,-0.5572519083969466
1646443392209.677,0.00128173828125,0.1217041015625,0.01983642578125,-0.5267175572519084,-0.9083969465648855,-0.5572519083969466
1646443392210.237,0.00128173828125,0.1217041015625,0.01983642578125,-0.5267175572519084,-0.9083969465648855,-0.5572519083969466
1646443392210.797,-0.00042724609375,0.1209716796875,0.02642822265625,-0.7022900763358778,-0.9236641221374046,-0.549618320610687
1646443392211.3574,-0.00042724609375,0.1209716796875,0.02642822265625,-0.7022900763358778,-0.9236641221374046,-0.549618320610687
1646443392211.9172,-0.0006103515625,0.1202392578125,0.0345458984375,-0.9236641221374046,-0.9236641221374046,-0.549618320610687
1646443392212.476,-0.000732421875,0.1209716796875,0.0322265625,-0.9541984732824428,-0.8778625954198473,-0.549618320610687
1646443392213.0332,-0.000732421875,0.1209716796875,0.0322265625,-0.9541984732824428,-0.8778625954198473,-0.549618320610687
1646443392213.591,0.00054931640625,0.122314453125,0.02117919921875,-0.9083969465648855,-0.9083969465648855,-0.5419847328244275
1646443392214.151,0.00054931640625,0.122314453125,0.02117919921875,-0.9083969465648855,-0.9083969465648855,-0.5419847328244275
1646443392214.7097,0.0008544921875,0.12255859375,0.02191162109375,-0.8931297709923665,-0.9847328244274809,-0.5419847328244275
1646443392215.2708,0.0008544921875,0.12255859375,0.02191162109375,-0.8931297709923665,-0.9847328244274809,-0.5419847328244275
1646443392215.8298,0.0015869140625,0.121337890625,0.02703857421875,-0.8625954198473282,-1.0687022900763359,-0.5648854961832062
1646443392216.3901,0.0015869140625,0.121337890625,0.02703857421875,-0.8625954198473282,-1.0687022900763359,-0.5648854961832062
1646443392216.951,0.001953125,0.122314453125,0.02764892578125,-0.8778625954198473,-1.1374045801526718,-0.5572519083969466
1646443392217.523,0.0009765625,0.12322998046875,0.02734375,-0.916030534351145,-1.183206106870229,-0.5648854961832062
1646443392218.0947,0.0009765625,0.12322998046875,0.02734375,-0.916030534351145,-1.183206106870229,-0.5648854961832062
1646443392218.6672,-0.0003662109375,0.1243896484375,0.02154541015625,-0.916030534351145,-1.2442748091603053,-0.5877862595419847
1646443392219.2295,-0.0003662109375,0.1243896484375,0.02154541015625,-0.916030534351145,-1.2442748091603053,-0.5877862595419847
1646443392219.791,-0.0009765625,0.12359619140625,0.02191162109375,-0.8702290076335878,-1.2442748091603053,-0.5801526717557252
1646443392220.351,-0.0009765625,0.12359619140625,0.02191162109375,-0.8702290076335878,-1.2442748091603053,-0.5801526717557252
1646443392220.9114,-0.00250244140625,0.123046875,0.02691650390625,-0.7175572519083969,-1.1908396946564885,-0.5725190839694656
1646443392221.4722,-0.00311279296875,0.12274169921875,0.02728271484375,-0.5954198473282443,-1.1145038167938932,-0.5725190839694656
1646443392222.0325,-0.00311279296875,0.12274169921875,0.02728271484375,-0.5954198473282443,-1.1145038167938932,-0.5725190839694656
1646443392222.5938,-0.00439453125,0.1236572265625,0.02862548828125,-0.5343511450381679,-1.015267175572519,-0.5648854961832062
1646443392223.1536,-0.00439453125,0.1236572265625,0.02862548828125,-0.5343511450381679,-1.015267175572519,-0.5648854961832062
1646443392223.7134,-0.0045166015625,0.12298583984375,0.027099609375,-0.5572519083969466,-0.9770992366412213,-0.549618320610687
1646443392224.2715,-0.0045166015625,0.12298583984375,0.027099609375,-0.5572519083969466,-0.9770992366412213,-0.549618320610687
1646443392224.8315,-0.00439453125,0.1219482421875,0.0244140625,-0.7022900763358778,-0.9847328244274809,-0.5190839694656488
1646443392225.389,-0.00439453125,0.1219482421875,0.0244140625,-0.7022900763358778,-0.9847328244274809,-0.5190839694656488
1646443392225.9468,-0.005126953125,0.12115478515625,0.026611328125,-0.8320610687022901,-0.9847328244274809,-0.5114503816793893
1646443392226.5066,-0.00347900390625,0.12225341796875,0.026123046875,-0.9312977099236641,-1.0076335877862594,-0.4961832061068702
1646443392227.0674,-0.00347900390625,0.12225341796875,0.026123046875,-0.9312977099236641,-1.0076335877862594,-0.4961832061068702
1646443392227.627,-0.00250244140625,0.1239013671875,0.02301025390625,-0.9541984732824428,-1.0458015267175573,-0.48854961832061067
1646443392228.187,-0.00250244140625,0.1239013671875,0.02301025390625,-0.9541984732824428,-1.0458015267175573,-0.48854961832061067
1646443392228.7476,-0.003173828125,0.12347412109375,0.02239990234375,-1.015267175572519,-1.0916030534351144,-0.48854961832061067
1646443392229.3076,-0.003173828125,0.12347412109375,0.02239990234375,-1.015267175572519,-1.0916030534351144,-0.48854961832061067
1646443392229.868,-0.00347900390625,0.12213134765625,0.02117919921875,-1.1145038167938932,-1.2061068702290076,-0.4732824427480916
1646443392230.4277,-0.00347900390625,0.12213134765625,0.02117919921875,-1.1145038167938932,-1.2061068702290076,-0.4732824427480916
1646443392230.9905,-0.00225830078125,0.1220703125,0.02117919921875,-1.1450381679389312,-1.251908396946565,-0.48091603053435117
1646443392231.5503,-0.00177001953125,0.12164306640625,0.02471923828125,-1.0,-1.251908396946565,-0.48091603053435117
1646443392232.1086,-0.00177001953125,0.12164306640625,0.02471923828125,-1.0,-1.251908396946565,-0.48091603053435117
1646443392232.6638,-0.00146484375,0.1221923828125,0.0262451171875,-0.8091603053435115,-1.2290076335877862,-0.48854961832061067
1646443392233.4417,-0.00146484375,0.1221923828125,0.0262451171875,-0.8091603053435115,-1.2290076335877862,-0.48854961832061067
1646443392234.0085,-0.00213623046875,0.1229248046875,0.0247802734375,-0.8015267175572519,-1.2290076335877862,-0.48091603053435117
1646443392234.5696,-0.00299072265625,0.12103271484375,0.02288818359375,-0.8625954198473282,-1.2213740458015268,-0.4580152671755725
1646443392235.1326,-0.00299072265625,0.12103271484375,0.02288818359375,-0.8625954198473282,-1.2213740458015268,-0.4580152671755725
1646443392235.6943,-0.003173828125,0.1195068359375,0.02545166015625,-0.8625954198473282,-1.1755725190839694,-0.4580152671755725
1646443392236.255,-0.003173828125,0.1195068359375,0.02545166015625,-0.8625954198473282,-1.1755725190839694,-0.4580152671755725
1646443392236.8135,-0.00286865234375,0.12017822265625,0.0289306640625,-0.7175572519083969,-1.16793893129771,-0.45038167938931295
1646443392237.3752,-0.00286865234375,0.12017822265625,0.0289306640625,-0.7175572519083969,-1.16793893129771,-0.45038167938931295
1646443392237.9353,-0.003662109375,0.12176513671875,0.02496337890625,-0.648854961832061,-1.0763358778625953,-0.4351145038167939
1646443392238.4963,-0.00238037109375,0.1220703125,0.024169921875,-0.6564885496183206,-0.9847328244274809,-0.4198473282442748
1646443392239.0552,-0.00238037109375,0.1220703125,0.024169921875,-0.6564885496183206,-0.9847328244274809,-0.4198473282442748
1646443392239.614,-0.001708984375,0.1209716796875,0.026611328125,-0.8015267175572519,-0.9847328244274809,-0.3969465648854962
1646443392240.1726,-0.001708984375,0.1209716796875,0.026611328125,-0.8015267175572519,-0.9847328244274809,-0.3969465648854962
1646443392240.7334,-0.00201416015625,0.1199951171875,0.02630615234375,-0.916030534351145,-1.0305343511450382,-0.3969465648854962
1646443392241.2964,-0.00201416015625,0.1199951171875,0.02630615234375,-0.916030534351145,-1.0305343511450382,-0.3969465648854962
1646443392241.856,-0.0013427734375,0.121337890625,0.02532958984375,-0.9007633587786259,-1.1145038167938932,-0.4198473282442748
1646443392242.4158,-0.0013427734375,0.121337890625,0.02532958984375,-0.9007633587786259,-1.1145038167938932,-0.4198473282442748
1646443392242.9773,0.00048828125,0.12249755859375,0.02484130859375,-0.816793893129771,-1.1908396946564885,-0.4198473282442748
1646443392243.539,0.0003662109375,0.12286376953125,0.020751953125,-0.7557251908396947,-1.2442748091603053,-0.4198473282442748
1646443392244.0986,0.0003662109375,0.12286376953125,0.020751953125,-0.7557251908396947,-1.2442748091603053,-0.4198473282442748
1646443392244.66,0.00042724609375,0.12103271484375,0.021240234375,-0.8396946564885496,-1.366412213740458,-0.42748091603053434
1646443392245.2188,0.00042724609375,0.12103271484375,0.021240234375,-0.8396946564885496,-1.366412213740458,-0.42748091603053434
1646443392245.7808,-0.0010986328125,0.1204833984375,0.025634765625,-0.8702290076335878,-1.4961832061068703,-0.45038167938931295
1646443392246.3416,-0.0010986328125,0.1204833984375,0.025634765625,-0.8702290076335878,-1.4961832061068703,-0.45038167938931295
1646443392246.903,-0.00115966796875,0.12115478515625,0.02569580078125,-0.7938931297709924,-1.5038167938931297,-0.45038167938931295
1646443392247.465,-0.0018310546875,0.1214599609375,0.02581787109375,-0.5954198473282443,-1.4427480916030535,-0.44274809160305345
1646443392248.0276,-0.0018310546875,0.1214599609375,0.02581787109375,-0.5954198473282443,-1.4427480916030535,-0.44274809160305345
1646443392248.5886,-0.003662109375,0.121337890625,0.0244140625,-0.48091603053435117,-1.4198473282442747,-0.4580152671755725
1646443392249.1482,-0.003662109375,0.121337890625,0.0244140625,-0.48091603053435117,-1.4198473282442747,-0.4580152671755725
1646443392249.7068,-0.00390625,0.12091064453125,0.02532958984375,-0.5114503816793893,-1.3969465648854962,-0.45038167938931295
1646443392250.266,-0.00390625,0.12091064453125,0.02532958984375,-0.5114503816793893,-1.3969465648854962,-0.45038167938931295
1646443392250.8264,-0.00311279296875,0.11962890625,0.02978515625,-0.6183206106870229,-1.2900763358778626,-0.4198473282442748
1646443392251.3848,-0.00311279296875,0.11962890625,0.02978515625,-0.6183206106870229,-1.2900763358778626,-0.4198473282442748
1646443392251.946,-0.00189208984375,0.120849609375,0.03155517578125,-0.6564885496183206,-1.2290076335877862,-0.4122137404580153
1646443392252.507,-0.0008544921875,0.1224365234375,0.02777099609375,-0.6870229007633588,-1.2671755725190839,-0.3893129770992366
1646443392253.068,-0.0008544921875,0.1224365234375,0.02777099609375,-0.6870229007633588,-1.2671755725190839,-0.3893129770992366
1646443392253.629,-0.00115966796875,0.12139892578125,0.0218505859375,-0.6641221374045801,-1.297709923664122,-0.3969465648854962
1646443392254.1897,-0.00115966796875,0.12139892578125,0.0218505859375,-0.6641221374045801,-1.297709923664122,-0.3969465648854962
1646443392254.75,-0.00177001953125,0.12115478515625,0.02178955078125,-0.6946564885496184,-1.3129770992366412,-0.40458015267175573
1646443392255.312,-0.00177001953125,0.12115478515625,0.02178955078125,-0.6946564885496184,-1.3129770992366412,-0.40458015267175573
1646443392255.8743,-0.00164794921875,0.1199951171875,0.0234375,-0.732824427480916,-1.3358778625954197,-0.42748091603053434
1646443392256.4348,-0.00164794921875,0.1199951171875,0.0234375,-0.732824427480916,-1.3358778625954197,-0.42748091603053434
1646443392256.9934,0.0,0.12066650390625,0.0250244140625,-0.6793893129770993,-1.4045801526717556,-0.4580152671755725
1646443392257.5474,0.00030517578125,0.1219482421875,0.0260009765625,-0.5725190839694656,-1.5114503816793894,-0.45038167938931295
1646443392258.107,0.00030517578125,0.1219482421875,0.0260009765625,-0.5725190839694656,-1.5114503816793894,-0.45038167938931295
1646443392258.6665,0.000244140625,0.121826171875,0.0233154296875,-0.46564885496183206,-1.5419847328244274,-0.45038167938931295
1646443392259.2273,0.000244140625,0.121826171875,0.0233154296875,-0.46564885496183206,-1.5419847328244274,-0.45038167938931295
1646443392259.7878,-0.0013427734375,0.12188720703125,0.02490234375,-0.45038167938931295,-1.5038167938931297,-0.4580152671755725
1646443392260.3494,-0.0013427734375,0.12188720703125,0.02490234375,-0.45038167938931295,-1.5038167938931297,-0.4580152671755725
1646443392260.91,-0.0020751953125,0.12066650390625,0.02850341796875,-0.4961832061068702,-1.4427480916030535,-0.4580152671755725
1646443392261.4705,-0.001220703125,0.1199951171875,0.03009033203125,-0.4732824427480916,-1.3969465648854962,-0.4580152671755725
1646443392262.0308,-0.001220703125,0.1199951171875,0.03009033203125,-0.4732824427480916,-1.3969465648854962,-0.4580152671755725
1646443392262.5918,-0.00152587890625,0.12017822265625,0.0272216796875,-0.3893129770992366,-1.3435114503816794,-0.4580152671755725
1646443392263.154,-0.00152587890625,0.12017822265625,0.0272216796875,-0.3893129770992366,-1.3435114503816794,-0.4580152671755725
1646443392263.7153,-0.00250244140625,0.1202392578125,0.0245361328125,-0.366412213740458,-1.3282442748091603,-0.4580152671755725
1646443392264.2754,-0.00250244140625,0.1202392578125,0.0245361328125,-0.366412213740458,-1.3282442748091603,-0.4580152671755725
1646443392264.835,-0.00164794921875,0.12042236328125,0.0247802734375,-0.4580152671755725,-1.3511450381679388,-0.4732824427480916
1646443392265.3958,-0.00164794921875,0.12042236328125,0.0247802734375,-0.4580152671755725,-1.3511450381679388,-0.4732824427480916
1646443392265.957,-0.0009765625,0.11944580078125,0.02520751953125,-0.549618320610687,-1.3435114503816794,-0.4732824427480916
1646443392266.5164,-0.0009765625,0.11944580078125,0.02459716796875,-0.5114503816793893,-1.3206106870229009,-0.46564885496183206
1646443392267.0771,-0.0009765625,0.11944580078125,0.02459716796875,-0.5114503816793893,-1.3206106870229009,-0.46564885496183206
1646443392267.639,-0.0001220703125,0.11810302734375,0.0238037109375,-0.3816793893129771,-1.3053435114503817,-0.46564885496183206
1646443392268.2017,-0.0001220703125,0.11810302734375,0.0238037109375,-0.3816793893129771,-1.3053435114503817,-0.46564885496183206
1646443392268.765,-0.00054931640625,0.11846923828125,0.02349853515625,-0.31297709923664124,-1.3587786259541985,-0.48091603053435117
1646443392269.4607,-0.001220703125,0.12054443359375,0.02392578125,-0.366412213740458,-1.4045801526717556,-0.48091603053435117
1646443392270.0266,-0.001220703125,0.12054443359375,0.02392578125,-0.366412213740458,-1.4045801526717556,-0.48091603053435117
1646443392270.5876,-0.0020751953125,0.120361328125,0.023681640625,-0.40458015267175573,-1.4045801526717556,-0.5038167938931297
1646443392271.1484,-0.0020751953125,0.120361328125,0.023681640625,-0.40458015267175573,-1.4045801526717556,-0.5038167938931297
1646443392271.741,-0.00164794921875,0.11993408203125,0.02374267578125,-0.37404580152671757,-1.366412213740458,-0.4961832061068702
1646443392272.3027,-0.00164794921875,0.11993408203125,0.02374267578125,-0.37404580152671757,-1.366412213740458,-0.4961832061068702
1646443392272.8643,-0.00140380859375,0.12103271484375,0.0225830078125,-0.3435114503816794,-1.4122137404580153,-0.5114503816793893
1646443392273.425,-0.00140380859375,0.12103271484375,0.0225830078125,-0.3435114503816794,-1.4122137404580153,-0.5114503816793893
1646443392273.9868,-0.00213623046875,0.1207275390625,0.02117919921875,-0.37404580152671757,-1.4274809160305344,-0.5038167938931297
1646443392274.5486,-0.00250244140625,0.12127685546875,0.0223388671875,-0.44274809160305345,-1.4045801526717556,-0.48091603053435117
1646443392275.1108,-0.00250244140625,0.12127685546875,0.0223388671875,-0.44274809160305345,-1.4045801526717556,-0.48091603053435117
1646443392275.6726,-0.00152587890625,0.122314453125,0.0238037109375,-0.4961832061068702,-1.450381679389313,-0.4961832061068702
1646443392276.234,-0.00152587890625,0.122314453125,0.0238037109375,-0.4961832061068702,-1.450381679389313,-0.4961832061068702
1646443392276.7932,-0.00115966796875,0.120849609375,0.02557373046875,-0.44274809160305345,-1.4351145038167938,-0.5190839694656488
1646443392277.3564,-0.00115966796875,0.120849609375,0.02557373046875,-0.44274809160305345,-1.4351145038167938,-0.5190839694656488
1646443392277.9172,-0.00091552734375,0.12109375,0.02490234375,-0.3893129770992366,-1.381679389312977,-0.5038167938931297
1646443392278.4758,-0.0015869140625,0.12200927734375,0.02301025390625,-0.4122137404580153,-1.3740458015267176,-0.5038167938931297
1646443392279.0376,-0.0015869140625,0.12200927734375,0.02301025390625,-0.4122137404580153,-1.3740458015267176,-0.5038167938931297
1646443392279.5981,-0.00189208984375,0.12127685546875,0.021240234375,-0.42748091603053434,-1.4045801526717556,-0.48854961832061067
1646443392280.16,-0.00189208984375,0.12127685546875,0.021240234375,-0.42748091603053434,-1.4045801526717556,-0.48854961832061067
1646443392280.7197,-0.0030517578125,0.12078857421875,0.020751953125,-0.42748091603053434,-1.450381679389313,-0.4961832061068702
1646443392281.2834,-0.0030517578125,0.12078857421875,0.020751953125,-0.42748091603053434,-1.450381679389313,-0.4961832061068702
1646443392281.8428,-0.00323486328125,0.12091064453125,0.02215576171875,-0.3893129770992366,-1.4198473282442747,-0.5114503816793893
1646443392282.4045,-0.00323486328125,0.12091064453125,0.02215576171875,-0.3893129770992366,-1.4198473282442747,-0.5114503816793893
1646443392282.9648,-0.0018310546875,0.1217041015625,0.02215576171875,-0.366412213740458,-1.3740458015267176,-0.5343511450381679
1646443392283.5264,-0.00115966796875,0.12042236328125,0.02313232421875,-0.44274809160305345,-1.3969465648854962,-0.5038167938931297
1646443392284.0886,-0.00115966796875,0.12042236328125,0.02313232421875,-0.44274809160305345,-1.3969465648854962,-0.5038167938931297
1646443392284.6511,-0.00146484375,0.12030029296875,0.0234375,-0.5343511450381679,-1.465648854961832,-0.48854961832061067
1646443392285.2078,-0.00146484375,0.12030029296875,0.0234375,-0.5343511450381679,-1.465648854961832,-0.48854961832061067
1646443392285.7668,-0.00164794921875,0.1201171875,0.0225830078125,-0.6183206106870229,-1.4885496183206106,-0.4961832061068702
1646443392286.3257,-0.00164794921875,0.1201171875,0.0225830078125,-0.6183206106870229,-1.4885496183206106,-0.4961832061068702
1646443392286.8862,-0.00244140625,0.1202392578125,0.02142333984375,-0.6335877862595419,-1.4351145038167938,-0.5038167938931297
1646443392287.4446,-0.00177001953125,0.12066650390625,0.0220947265625,-0.5801526717557252,-1.4274809160305344,-0.48854961832061067
1646443392288.0063,-0.00177001953125,0.12066650390625,0.0220947265625,-0.5801526717557252,-1.4274809160305344,-0.48854961832061067
1646443392288.5679,-0.001708984375,0.1204833984375,0.02362060546875,-0.549618320610687,-1.4198473282442747,-0.48854961832061067
1646443392289.127,-0.001708984375,0.1204833984375,0.02362060546875,-0.549618320610687,-1.4198473282442747,-0.48854961832061067
1646443392289.688,-0.0009765625,0.12030029296875,0.02392578125,-0.5801526717557252,-1.465648854961832,-0.4732824427480916
1646443392290.2458,-0.0009765625,0.12030029296875,0.02392578125,-0.5801526717557252,-1.465648854961832,-0.4732824427480916
1646443392290.806,-0.00091552734375,0.1201171875,0.021484375,-0.6335877862595419,-1.5038167938931297,-0.46564885496183206
1646443392291.3645,-0.00091552734375,0.1201171875,0.021484375,-0.6335877862595419,-1.5038167938931297,-0.46564885496183206
1646443392291.9246,-0.000732421875,0.1197509765625,0.02093505859375,-0.5954198473282443,-1.5419847328244274,-0.4961832061068702
